File: mof-801_xrd/5L-1.csv
"No.","Pos. [°2θ]","Iobs [cps]"
"1","5.0197","174.6447"
"2","5.0587","171.9330"
"3","5.0977","167.2892"
"4","5.1367","170.4772"
"5","5.1757","170.6974"
"6","5.2147","168.2177"
"7","5.2537","166.3122"
"8","5.2927","163.2650"
"9","5.3317","160.2762"
"10","5.3707","159.8484"
"11","5.4097","156.2226"
"12","5.4487","156.3059"
"13","5.4877","156.1454"
"14","5.5267","153.6398"
"15","5.5657","152.9158"
"16","5.6047","150.5446"
"17","5.6437","149.9131"
"18","5.6827","150.4913"
"19","5.7217","149.1686"
"20","5.7607","145.9913"
"21","5.7997","146.9894"
"22","5.8387","144.0175"
"23","5.8777","141.1967"
"24","5.9167","142.4033"
"25","5.9557","141.2279"
"26","5.9947","140.4184"
"27","6.0337","140.0486"
"28","6.0727","140.3168"
"29","6.1117","138.9968"
"30","6.1507","139.7972"
"31","6.1897","141.3957"
"32","6.2287","139.0389"
"33","6.2677","138.6157"
"34","6.3067","137.9233"
"35","6.3457","136.6439"
"36","6.3847","137.3289"
"37","6.4237","136.5777"
"38","6.4627","135.5157"
"39","6.5017","135.4803"
"40","6.5407","137.1388"
"41","6.5797","136.6247"
"42","6.6187","134.3441"
"43","6.6577","134.0266"
"44","6.6967","134.2546"
"45","6.7357","133.4905"
"46","6.7747","132.7142"
"47","6.8137","133.8361"
"48","6.8527","135.4154"
"49","6.8917","134.7810"
"50","6.9307","133.1378"
"51","6.9697","132.0855"
"52","7.0087","131.4894"
"53","7.0477","130.7462"
"54","7.0867","131.9415"
"55","7.1257","134.3062"
"56","7.1647","133.7603"
"57","7.2037","132.6325"
"58","7.2427","131.7392"
"59","7.2817","131.1237"
"60","7.3207","131.1700"
"61","7.3597","130.8852"
"62","7.3987","132.2413"
"63","7.4377","131.8953"
"64","7.4767","132.1480"
"65","7.5157","131.2542"
"66","7.5547","129.7333"
"67","7.5937","131.9099"
"68","7.6327","133.6062"
"69","7.6717","132.8686"
"70","7.7107","133.8612"
"71","7.7497","133.2440"
"72","7.7887","134.2168"
"73","7.8277","136.4102"
"74","7.8667","137.6287"
"75","7.9057","142.1687"
"76","7.9447","144.4153"
"77","7.9837","149.7176"
"78","8.0227","153.8211"
"79","8.0617","157.6881"
"80","8.1007","162.9261"
"81","8.1397","170.7216"
"82","8.1787","188.1471"
"83","8.2177","200.7306"
"84","8.2567","219.5622"
"85","8.2957","243.0857"
"86","8.3347","267.3265"
"87","8.3737","302.8503"
"88","8.4127","351.5328"
"89","8.4517","410.0369"
"90","8.4907","489.0751"
"91","8.5297","563.3324"
"92","8.5687","606.7165"
"93","8.6077","561.4481"
"94","8.6467","419.7687"
"95","8.6857","298.1490"
"96","8.7247","226.5148"
"97","8.7637","195.3804"
"98","8.8027","179.8514"
"99","8.8417","172.7499"
"100","8.8807","167.3544"
"101","8.9197","164.5853"
"102","8.9587","157.1486"
"103","8.9977","153.1148"
"104","9.0367","153.9585"
"105","9.0757","154.4808"
"106","9.1147","152.8274"
"107","9.1537","149.8032"
"108","9.1927","151.4527"
"109","9.2317","151.3791"
"110","9.2707","152.0694"
"111","9.3097","155.9588"
"112","9.3487","153.3048"
"113","9.3877","154.0130"
"114","9.4267","155.9498"
"115","9.4657","161.1565"
"116","9.5047","161.3879"
"117","9.5437","164.7382"
"118","9.5827","171.0249"
"119","9.6217","179.5112"
"120","9.6607","190.3846"
"121","9.6997","206.3686"
"122","9.7387","225.7873"
"123","9.7777","248.8719"
"124","9.8167","280.5233"
"125","9.8557","316.9585"
"126","9.8947","333.7801"
"127","9.9337","317.7092"
"128","9.9727","264.5393"
"129","10.0117","209.4881"
"130","10.0507","176.1644"
"131","10.0897","160.6777"
"132","10.1287","152.7761"
"133","10.1677","148.4981"
"134","10.2067","144.2167"
"135","10.2457","140.6741"
"136","10.2847","137.9969"
"137","10.3237","136.9684"
"138","10.3627","137.7720"
"139","10.4017","134.8559"
"140","10.4407","132.5341"
"141","10.4797","134.1373"
"142","10.5187","134.0243"
"143","10.5577","132.1947"
"144","10.5967","133.7984"
"145","10.6357","131.6572"
"146","10.6747","130.4405"
"147","10.7137","131.1086"
"148","10.7527","129.8738"
"149","10.7917","130.6684"
"150","10.8307","129.9744"
"151","10.8697","127.2109"
"152","10.9087","127.9860"
"153","10.9477","128.7223"
"154","10.9867","128.3810"
"155","11.0257","129.7163"
"156","11.0647","128.8562"
"157","11.1037","126.2188"
"158","11.1427","126.6909"
"159","11.1817","127.6585"
"160","11.2207","126.8870"
"161","11.2597","126.5140"
"162","11.2987","124.8568"
"163","11.3377","123.2796"
"164","11.3767","122.1590"
"165","11.4157","123.0424"
"166","11.4547","124.4301"
"167","11.4937","125.1668"
"168","11.5327","123.6304"
"169","11.5717","122.7241"
"170","11.6107","121.6950"
"171","11.6497","121.2112"
"172","11.6887","120.1568"
"173","11.7277","120.2718"
"174","11.7667","121.7636"
"175","11.8057","121.0840"
"176","11.8447","120.5892"
"177","11.8837","120.0701"
"178","11.9227","123.3682"
"179","11.9617","123.2649"
"180","12.0007","122.6188"
"181","12.0397","121.6966"
"182","12.0787","119.8295"
"183","12.1177","118.9749"
"184","12.1567","122.5340"
"185","12.1957","122.5934"
"186","12.2347","120.4792"
"187","12.2737","120.4799"
"188","12.3127","120.4451"
"189","12.3517","121.9788"
"190","12.3907","121.6537"
"191","12.4297","116.3610"
"192","12.4687","120.2347"
"193","12.5077","118.9115"
"194","12.5467","117.2930"
"195","12.5857","120.9951"
"196","12.6247","117.1014"
"197","12.6637","114.9805"
"198","12.7027","115.9820"
"199","12.7417","118.3950"
"200","12.7807","115.6748"
"201","12.8197","118.7706"
"202","12.8587","116.3296"
"203","12.8977","114.5218"
"204","12.9367","117.2548"
"205","12.9757","116.9906"
"206","13.0147","116.5822"
"207","13.0537","115.8540"
"208","13.0927","116.4101"
"209","13.1317","118.3666"
"210","13.1707","116.5759"
"211","13.2097","114.9969"
"212","13.2487","115.5437"
"213","13.2877","114.8138"
"214","13.3267","115.2181"
"215","13.3657","113.3172"
"216","13.4047","114.5514"
"217","13.4437","118.7481"
"218","13.4827","116.9155"
"219","13.5217","117.2111"
"220","13.5607","113.8903"
"221","13.5997","114.7081"
"222","13.6387","117.9509"
"223","13.6777","117.1707"
"224","13.7167","119.3938"
"225","13.7557","116.8371"
"226","13.7947","118.1177"
"227","13.8337","117.0278"
"228","13.8727","115.7973"
"229","13.9117","119.1999"
"230","13.9507","122.4528"
"231","13.9897","126.3895"
"232","14.0287","129.4549"
"233","14.0677","124.8558"
"234","14.1067","119.7454"
"235","14.1457","117.9564"
"236","14.1847","113.2306"
"237","14.2237","112.1548"
"238","14.2627","113.8401"
"239","14.3017","112.6292"
"240","14.3407","113.1220"
"241","14.3797","114.5166"
"242","14.4187","111.9833"
"243","14.4577","112.1819"
"244","14.4967","113.7465"
"245","14.5357","112.4019"
"246","14.5747","111.3776"
"247","14.6137","111.9792"
"248","14.6527","110.8571"
"249","14.6917","109.3855"
"250","14.7307","110.1456"
"251","14.7697","112.4101"
"252","14.8087","111.4416"
"253","14.8477","109.6687"
"254","14.8867","110.0339"
"255","14.9257","110.7953"
"256","14.9647","112.1905"
"257","15.0037","111.0596"
"258","15.0427","111.3579"
"259","15.0817","111.8736"
"260","15.1207","109.3725"
"261","15.1597","109.6013"
"262","15.1987","109.6050"
"263","15.2377","110.4848"
"264","15.2767","110.3567"
"265","15.3157","109.4806"
"266","15.3547","109.5278"
"267","15.3937","110.0084"
"268","15.4327","109.4335"
"269","15.4717","105.2042"
"270","15.5107","106.4927"
"271","15.5497","107.9565"
"272","15.5887","107.5663"
"273","15.6277","107.3896"
"274","15.6667","108.4227"
"275","15.7057","107.0625"
"276","15.7447","107.7869"
"277","15.7837","106.2274"
"278","15.8227","106.9470"
"279","15.8617","107.1376"
"280","15.9007","105.9727"
"281","15.9397","106.6112"
"282","15.9787","106.4447"
"283","16.0177","107.2727"
"284","16.0567","106.3943"
"285","16.0957","109.2111"
"286","16.1347","107.2943"
"287","16.1737","106.1217"
"288","16.2127","104.2681"
"289","16.2517","102.2711"
"290","16.2907","104.7295"
"291","16.3297","109.2114"
"292","16.3687","107.1043"
"293","16.4077","102.3623"
"294","16.4467","107.9652"
"295","16.4857","105.6596"
"296","16.5247","108.3322"
"297","16.5637","106.6003"
"298","16.6027","107.7882"
"299","16.6417","103.7876"
"300","16.6807","106.4436"
"301","16.7197","102.8312"
"302","16.7587","101.9674"
"303","16.7977","105.5134"
"304","16.8367","106.8076"
"305","16.8757","104.2037"
"306","16.9147","106.0997"
"307","16.9537","104.5523"
"308","16.9927","102.4338"
"309","17.0317","105.9772"
"310","17.0707","104.1587"
"311","17.1097","104.2834"
"312","17.1487","105.1400"
"313","17.1877","106.4942"
"314","17.2267","104.8108"
"315","17.2657","103.5866"
"316","17.3047","103.0555"
"317","17.3437","104.3078"
"318","17.3827","106.8005"
"319","17.4217","102.7201"
"320","17.4607","103.2149"
"321","17.4997","103.0818"
"322","17.5387","100.8000"
"323","17.5777","102.5057"
"324","17.6167","103.7821"
"325","17.6557","102.3606"
"326","17.6947","103.7692"
"327","17.7337","101.9075"
"328","17.7727","104.6677"
"329","17.8117","103.5100"
"330","17.8507","101.6601"
"331","17.8897","99.8909"
"332","17.9287","102.3521"
"333","17.9677","101.1213"
"334","18.0067","97.9050"
"335","18.0457","100.0566"
"336","18.0847","103.5315"
"337","18.1237","101.5137"
"338","18.1627","101.2630"
"339","18.2017","101.5036"
"340","18.2407","101.1308"
"341","18.2797","100.8009"
"342","18.3187","98.8371"
"343","18.3577","101.2187"
"344","18.3967","99.0889"
"345","18.4357","99.9566"
"346","18.4747","100.5718"
"347","18.5137","99.5057"
"348","18.5527","100.9515"
"349","18.5917","101.9063"
"350","18.6307","100.6664"
"351","18.6697","100.9005"
"352","18.7087","100.8710"
"353","18.7477","100.6571"
"354","18.7867","102.4543"
"355","18.8257","101.7522"
"356","18.8647","100.5690"
"357","18.9037","101.2155"
"358","18.9427","102.8217"
"359","18.9817","102.5473"
"360","19.0207","100.3361"
"361","19.0597","101.7311"
"362","19.0987","101.5647"
"363","19.1377","99.7313"
"364","19.1767","100.1437"
"365","19.2157","100.1622"
"366","19.2547","100.9772"
"367","19.2937","100.8829"
"368","19.3327","99.5743"
"369","19.3717","100.5418"
"370","19.4107","100.2554"
"371","19.4497","99.0695"
"372","19.4887","100.3502"
"373","19.5277","99.3619"
"374","19.5667","100.8446"
"375","19.6057","100.2835"
"376","19.6447","100.3055"
"377","19.6837","103.5225"
"378","19.7227","104.1149"
"379","19.7617","105.6826"
"380","19.8007","110.5826"
"381","19.8397","116.6532"
"382","19.8787","119.3981"
"383","19.9177","123.1914"
"384","19.9567","121.4462"
"385","19.9957","113.5307"
"386","20.0347","108.5707"
"387","20.0737","102.5534"
"388","20.1127","101.9624"
"389","20.1517","101.4978"
"390","20.1907","99.8511"
"391","20.2297","98.7689"
"392","20.2687","100.1336"
"393","20.3077","102.6352"
"394","20.3467","100.8944"
"395","20.3857","101.1624"
"396","20.4247","102.4606"
"397","20.4637","99.7215"
"398","20.5027","103.7600"
"399","20.5417","102.5513"
"400","20.5807","99.7433"
"401","20.6197","102.1718"
"402","20.6587","100.3195"
"403","20.6977","99.2587"
"404","20.7367","98.8481"
"405","20.7757","98.6222"
"406","20.8147","100.6567"
"407","20.8537","98.6994"
"408","20.8927","101.0553"
"409","20.9317","100.2630"
"410","20.9707","101.4099"
"411","21.0097","101.1742"
"412","21.0487","101.4768"
"413","21.0877","96.8491"
"414","21.1267","100.2933"
"415","21.1657","100.1605"
"416","21.2047","101.0453"
"417","21.2437","102.3488"
"418","21.2827","104.7399"
"419","21.3217","101.8039"
"420","21.3607","102.5982"
"421","21.3997","104.7016"
"422","21.4387","106.5924"
"423","21.4777","106.7343"
"424","21.5167","110.6231"
"425","21.5557","116.8862"
"426","21.5947","127.1405"
"427","21.6337","142.4957"
"428","21.6727","156.9222"
"429","21.7117","165.7101"
"430","21.7507","162.0933"
"431","21.7897","146.9389"
"432","21.8287","129.9355"
"433","21.8677","116.9469"
"434","21.9067","108.1405"
"435","21.9457","104.5742"
"436","21.9847","103.6319"
"437","22.0237","104.0699"
"438","22.0627","105.2769"
"439","22.1017","103.8508"
"440","22.1407","105.1117"
"441","22.1797","106.3991"
"442","22.2187","108.6239"
"443","22.2577","109.4520"
"444","22.2967","110.9083"
"445","22.3357","109.4628"
"446","22.3747","105.3101"
"447","22.4137","101.1525"
"448","22.4527","100.0287"
"449","22.4917","102.4931"
"450","22.5307","103.8209"
"451","22.5697","103.5305"
"452","22.6087","103.7608"
"453","22.6477","103.7465"
"454","22.6867","105.6141"
"455","22.7257","107.8112"
"456","22.7647","107.9655"
"457","22.8037","107.8725"
"458","22.8427","109.3682"
"459","22.8817","110.3998"
"460","22.9207","108.2078"
"461","22.9597","106.2284"
"462","22.9987","103.8593"
"463","23.0377","102.8906"
"464","23.0767","103.4379"
"465","23.1157","100.8372"
"466","23.1547","99.8974"
"467","23.1937","100.6743"
"468","23.2327","100.4691"
"469","23.2717","100.0624"
"470","23.3107","101.0472"
"471","23.3497","102.5017"
"472","23.3887","101.3591"
"473","23.4277","102.0687"
"474","23.4667","103.0271"
"475","23.5057","102.7981"
"476","23.5447","104.8578"
"477","23.5837","102.6519"
"478","23.6227","100.0175"
"479","23.6617","100.6311"
"480","23.7007","101.8585"
"481","23.7397","102.3272"
"482","23.7787","100.4574"
"483","23.8177","100.5374"
"484","23.8567","102.2270"
"485","23.8957","102.8053"
"486","23.9347","104.2983"
"487","23.9737","101.8861"
"488","24.0127","102.5386"
"489","24.0517","102.8465"
"490","24.0907","103.0609"
"491","24.1297","101.6027"
"492","24.1687","106.8279"
"493","24.2077","103.1113"
"494","24.2467","104.5988"
"495","24.2857","108.0926"
"496","24.3247","115.7565"
"497","24.3637","125.6183"
"498","24.4027","131.6856"
"499","24.4417","137.6525"
"500","24.4807","139.9532"
"501","24.5197","131.2955"
"502","24.5587","116.6508"
"503","24.5977","111.0373"
"504","24.6367","109.3331"
"505","24.6757","105.5121"
"506","24.7147","105.5089"
"507","24.7537","104.5538"
"508","24.7927","103.5883"
"509","24.8317","105.7285"
"510","24.8707","104.5000"
"511","24.9097","104.5079"
"512","24.9487","105.1688"
"513","24.9877","103.7107"
"514","25.0267","104.7875"
"515","25.0657","104.3096"
"516","25.1047","103.4491"
"517","25.1437","102.8214"
"518","25.1827","103.3992"
"519","25.2217","106.9590"
"520","25.2607","106.7628"
"521","25.2997","107.3268"
"522","25.3387","109.1652"
"523","25.3777","108.5259"
"524","25.4167","110.5303"
"525","25.4557","113.3915"
"526","25.4947","114.0401"
"527","25.5337","111.2544"
"528","25.5727","108.7402"
"529","25.6117","107.3111"
"530","25.6507","109.1275"
"531","25.6897","110.9935"
"532","25.7287","114.8611"
"533","25.7677","118.9612"
"534","25.8067","123.0358"
"535","25.8457","132.6729"
"536","25.8847","147.5091"
"537","25.9237","165.4961"
"538","25.9627","173.3650"
"539","26.0017","166.7115"
"540","26.0407","149.9687"
"541","26.0797","130.9772"
"542","26.1187","117.9558"
"543","26.1577","110.8341"
"544","26.1967","107.1117"
"545","26.2357","107.2645"
"546","26.2747","106.7989"
"547","26.3137","104.2285"
"548","26.3527","104.9345"
"549","26.3917","105.8434"
"550","26.4307","104.4167"
"551","26.4697","104.6473"
"552","26.5087","104.3245"
"553","26.5477","101.3476"
"554","26.5867","101.4900"
"555","26.6257","102.6624"
"556","26.6647","102.9647"
"557","26.7037","103.5302"
"558","26.7427","102.7201"
"559","26.7817","100.9356"
"560","26.8207","100.5922"
"561","26.8597","102.5315"
"562","26.8987","103.2065"
"563","26.9377","101.4162"
"564","26.9767","99.7277"
"565","27.0157","101.2038"
"566","27.0547","101.9469"
"567","27.0937","101.6557"
"568","27.1327","100.9373"
"569","27.1717","101.0880"
"570","27.2107","99.6901"
"571","27.2497","100.9663"
"572","27.2887","101.3409"
"573","27.3277","99.5829"
"574","27.3667","101.6852"
"575","27.4057","101.0706"
"576","27.4447","100.0609"
"577","27.4837","101.4592"
"578","27.5227","99.3476"
"579","27.5617","98.6234"
"580","27.6007","99.6384"
"581","27.6397","100.7649"
"582","27.6787","99.1241"
"583","27.7177","100.1883"
"584","27.7567","99.7379"
"585","27.7957","97.9038"
"586","27.8347","98.5541"
"587","27.8737","98.5048"
"588","27.9127","101.5103"
"589","27.9517","99.5901"
"590","27.9907","96.0163"
"591","28.0297","100.3860"
"592","28.0687","99.4713"
"593","28.1077","100.3853"
"594","28.1467","99.5445"
"595","28.1857","100.8732"
"596","28.2247","102.4943"
"597","28.2637","107.0004"
"598","28.3027","107.7410"
"599","28.3417","106.3445"
"600","28.3807","105.5510"
"601","28.4197","100.6384"
"602","28.4587","99.0087"
"603","28.4977","97.8051"
"604","28.5367","98.9525"
"605","28.5757","90.5353"
"606","28.6147","94.5207"
"607","28.6537","96.4784"
"608","28.6927","98.0650"
"609","28.7317","95.2315"
"610","28.7707","96.5447"
"611","28.8097","97.8853"
"612","28.8487","100.4266"
"613","28.8877","95.6836"
"614","28.9267","94.1960"
"615","28.9657","96.6772"
"616","29.0047","97.1444"
"617","29.0437","93.5569"
"618","29.0827","96.0885"
"619","29.1217","98.2148"
"620","29.1607","99.0269"
"621","29.1997","100.9485"
"622","29.2387","97.3974"
"623","29.2777","97.8865"
"624","29.3167","101.1827"
"625","29.3557","101.3705"
"626","29.3947","100.4103"
"627","29.4337","98.8553"
"628","29.4727","101.9697"
"629","29.5117","107.4393"
"630","29.5507","110.8657"
"631","29.5897","117.4625"
"632","29.6287","121.1237"
"633","29.6677","119.2782"
"634","29.7067","113.1503"
"635","29.7457","108.9477"
"636","29.7847","106.9437"
"637","29.8237","108.9953"
"638","29.8627","111.1088"
"639","29.9017","115.0270"
"640","29.9407","129.3266"
"641","29.9797","147.2961"
"642","30.0187","170.1815"
"643","30.0577","186.9543"
"644","30.0967","182.3707"
"645","30.1357","165.7039"
"646","30.1747","144.4350"
"647","30.2137","123.6334"
"648","30.2527","110.2269"
"649","30.2917","104.1374"
"650","30.3307","100.6812"
"651","30.3697","97.5542"
"652","30.4087","94.7119"
"653","30.4477","95.8211"
"654","30.4867","95.2674"
"655","30.5257","94.5059"
"656","30.5647","95.6730"
"657","30.6037","95.6660"
"658","30.6427","97.5868"
"659","30.6817","96.6974"
"660","30.7207","95.0490"
"661","30.7597","96.1920"
"662","30.7987","94.9844"
"663","30.8377","94.3350"
"664","30.8767","96.0670"
"665","30.9157","96.1454"
"666","30.9547","95.3042"
"667","30.9937","95.9219"
"668","31.0327","95.4422"
"669","31.0717","95.1485"
"670","31.1107","93.5408"
"671","31.1497","92.9945"
"672","31.1887","90.2344"
"673","31.2277","91.8894"
"674","31.2667","93.2577"
"675","31.3057","94.8140"
"676","31.3447","94.4170"
"677","31.3837","93.0108"
"678","31.4227","93.0964"
"679","31.4617","91.6712"
"680","31.5007","90.5259"
"681","31.5397","91.0332"
"682","31.5787","92.4146"
"683","31.6177","91.2704"
"684","31.6567","92.2079"
"685","31.6957","92.0708"
"686","31.7347","94.0397"
"687","31.7737","93.2743"
"688","31.8127","93.2240"
"689","31.8517","92.5865"
"690","31.8907","93.0976"
"691","31.9297","93.2778"
"692","31.9687","94.6022"
"693","32.0077","96.1696"
"694","32.0467","97.2994"
"695","32.0857","97.9534"
"696","32.1247","99.0838"
"697","32.1637","98.0482"
"698","32.2027","99.2450"
"699","32.2417","96.0818"
"700","32.2807","95.7588"
"701","32.3197","95.8664"
"702","32.3587","92.0068"
"703","32.3977","92.1193"
"704","32.4367","91.8909"
"705","32.4757","89.9944"
"706","32.5147","90.3827"
"707","32.5537","90.3622"
"708","32.5927","92.4466"
"709","32.6317","92.4178"
"710","32.6707","90.6540"
"711","32.7097","92.1758"
"712","32.7487","98.0362"
"713","32.7877","98.4294"
"714","32.8267","101.3137"
"715","32.8657","107.7194"
"716","32.9047","116.4816"
"717","32.9437","119.1385"
"718","32.9827","115.2502"
"719","33.0217","110.0694"
"720","33.0607","102.2591"
"721","33.0997","97.2798"
"722","33.1387","96.5054"
"723","33.1777","91.8683"
"724","33.2167","90.5181"
"725","33.2557","91.7285"
"726","33.2947","91.0014"
"727","33.3337","92.5080"
"728","33.3727","94.3592"
"729","33.4117","90.4056"
"730","33.4507","89.9063"
"731","33.4897","91.8453"
"732","33.5287","91.9926"
"733","33.5677","91.0609"
"734","33.6067","89.8418"
"735","33.6457","91.5289"
"736","33.6847","90.6019"
"737","33.7237","90.8252"
"738","33.7627","92.1034"
"739","33.8017","91.1921"
"740","33.8407","89.2124"
"741","33.8797","88.6453"
"742","33.9187","89.5352"
"743","33.9577","89.9092"
"744","33.9967","91.6486"
"745","34.0357","90.0787"
"746","34.0747","89.8028"
"747","34.1137","90.6485"
"748","34.1527","90.9735"
"749","34.1917","89.4854"
"750","34.2307","88.2249"
"751","34.2697","87.1823"
"752","34.3087","87.6774"
"753","34.3477","88.0605"
"754","34.3867","87.9946"
"755","34.4257","88.2372"
"756","34.4647","88.8407"
"757","34.5037","89.7911"
"758","34.5427","90.6470"
"759","34.5817","90.3553"
"760","34.6207","92.3070"
"761","34.6597","95.5299"
"762","34.6987","95.8811"
"763","34.7377","99.5223"
"764","34.7767","109.4085"
"765","34.8157","120.3721"
"766","34.8547","124.7552"
"767","34.8937","121.9299"
"768","34.9327","114.3307"
"769","34.9717","108.6936"
"770","35.0107","102.5905"
"771","35.0497","97.7985"
"772","35.0887","93.2298"
"773","35.1277","92.1100"
"774","35.1667","91.9864"
"775","35.2057","89.6310"
"776","35.2447","90.0831"
"777","35.2837","89.6524"
"778","35.3227","90.8169"
"779","35.3617","93.2164"
"780","35.4007","90.8876"
"781","35.4397","91.5029"
"782","35.4787","92.9932"
"783","35.5177","94.8182"
"784","35.5567","95.3973"
"785","35.5957","92.1967"
"786","35.6347","94.7639"
"787","35.6737","97.4972"
"788","35.7127","94.9360"
"789","35.7517","91.9913"
"790","35.7907","93.3869"
"791","35.8297","96.5334"
"792","35.8687","98.6433"
"793","35.9077","103.1947"
"794","35.9467","105.0526"
"795","35.9857","107.5513"
"796","36.0247","105.2773"
"797","36.0637","100.4575"
"798","36.1027","95.6149"
"799","36.1417","91.6772"
"800","36.1807","88.6381"
"801","36.2197","90.0039"
"802","36.2587","86.7379"
"803","36.2977","85.9318"
"804","36.3367","90.2517"
"805","36.3757","86.3858"
"806","36.4147","88.5371"
"807","36.4537","90.2354"
"808","36.4927","89.4342"
"809","36.5317","86.4919"
"810","36.5707","85.4312"
"811","36.6097","86.5220"
"812","36.6487","86.9803"
"813","36.6877","85.9440"
"814","36.7267","84.3506"
"815","36.7657","85.5246"
"816","36.8047","88.0760"
"817","36.8437","87.4269"
"818","36.8827","86.0720"
"819","36.9217","88.7451"
"820","36.9607","87.7394"
"821","36.9997","85.3717"
"822","37.0387","84.1438"
"823","37.0777","84.6225"
"824","37.1167","85.5524"
"825","37.1557","83.7309"
"826","37.1947","85.6723"
"827","37.2337","85.2778"
"828","37.2727","83.5506"
"829","37.3117","84.0573"
"830","37.3507","86.8101"
"831","37.3897","87.4133"
"832","37.4287","85.2762"
"833","37.4677","83.8213"
"834","37.5067","85.7517"
"835","37.5457","86.2134"
"836","37.5847","85.7911"
"837","37.6237","86.9747"
"838","37.6627","88.0963"
"839","37.7017","89.9700"
"840","37.7407","88.2911"
"841","37.7797","87.1528"
"842","37.8187","85.9429"
"843","37.8577","86.8394"
"844","37.8967","89.2546"
"845","37.9357","87.6623"
"846","37.9747","84.1268"
"847","38.0137","86.3576"
"848","38.0527","87.8363"
"849","38.0917","87.8748"
"850","38.1307","86.4706"
"851","38.1697","86.7542"
"852","38.2087","86.3234"
"853","38.2477","84.7274"
"854","38.2867","85.6236"
"855","38.3257","88.1585"
"856","38.3647","87.2161"
"857","38.4037","83.8842"
"858","38.4427","84.4477"
"859","38.4817","86.5635"
"860","38.5207","88.8516"
"861","38.5597","89.7364"
"862","38.5987","90.1881"
"863","38.6377","93.1499"
"864","38.6767","98.1444"
"865","38.7157","106.2278"
"866","38.7547","113.7232"
"867","38.7937","117.5527"
"868","38.8327","114.2205"
"869","38.8717","108.3924"
"870","38.9107","102.4289"
"871","38.9497","97.5609"
"872","38.9887","93.3992"
"873","39.0277","92.0094"
"874","39.0667","90.2591"
"875","39.1057","87.1898"
"876","39.1447","86.2239"
"877","39.1837","85.9632"
"878","39.2227","88.3036"
"879","39.2617","87.6626"
"880","39.3007","87.6827"
"881","39.3397","87.3733"
"882","39.3787","88.2753"
"883","39.4177","88.2271"
"884","39.4567","87.5848"
"885","39.4957","88.6900"
"886","39.5347","87.6855"
"887","39.5737","89.0119"
"888","39.6127","87.2627"
"889","39.6517","83.8165"
"890","39.6907","84.6477"
"891","39.7297","86.4520"
"892","39.7687","85.6076"
"893","39.8077","85.5724"
"894","39.8467","87.7758"
"895","39.8857","87.0530"
"896","39.9247","89.1918"
"897","39.9637","85.9923"
"898","40.0027","86.4139"
"899","40.0417","84.8994"
"900","40.0807","83.6299"
"901","40.1197","86.6287"
"902","40.1587","86.5845"
"903","40.1977","85.5274"
"904","40.2367","84.4291"
"905","40.2757","86.4060"
"906","40.3147","85.3251"
"907","40.3537","86.6054"
"908","40.3927","90.4464"
"909","40.4317","93.0965"
"910","40.4707","93.3048"
"911","40.5097","93.8724"
"912","40.5487","90.4604"
"913","40.5877","90.1233"
"914","40.6267","90.9526"
"915","40.6657","87.0450"
"916","40.7047","91.2049"
"917","40.7437","90.6598"
"918","40.7827","88.6621"
"919","40.8217","88.7861"
"920","40.8607","89.2839"
"921","40.8997","89.3996"
"922","40.9387","88.5316"
"923","40.9777","86.6768"
"924","41.0167","88.2471"
"925","41.0557","84.9912"
"926","41.0947","87.3656"
"927","41.1337","85.9322"
"928","41.1727","86.4930"
"929","41.2117","85.8149"
"930","41.2507","87.4680"
"931","41.2897","86.0577"
"932","41.3287","83.5562"
"933","41.3677","83.9695"
"934","41.4067","85.9519"
"935","41.4457","88.8796"
"936","41.4847","88.5400"
"937","41.5237","87.2515"
"938","41.5627","88.3906"
"939","41.6017","90.8824"
"940","41.6407","92.6319"
"941","41.6797","100.7404"
"942","41.7187","108.5167"
"943","41.7577","111.7237"
"944","41.7967","111.9482"
"945","41.8357","108.6189"
"946","41.8747","105.2896"
"947","41.9137","100.2304"
"948","41.9527","94.9816"
"949","41.9917","92.1498"
"950","42.0307","90.6607"
"951","42.0697","89.0979"
"952","42.1087","87.5915"
"953","42.1477","89.4239"
"954","42.1867","87.8923"
"955","42.2257","85.9191"
"956","42.2647","86.4264"
"957","42.3037","85.4244"
"958","42.3427","86.6752"
"959","42.3817","86.9669"
"960","42.4207","85.8127"
"961","42.4597","86.7307"
"962","42.4987","86.4339"
"963","42.5377","85.8351"
"964","42.5767","86.6923"
"965","42.6157","86.4564"
"966","42.6547","85.5281"
"967","42.6937","85.2069"
"968","42.7327","84.7881"
"969","42.7717","86.1523"
"970","42.8107","87.6453"
"971","42.8497","87.6375"
"972","42.8887","87.5818"
"973","42.9277","92.4241"
"974","42.9667","96.8724"
"975","43.0057","101.3414"
"976","43.0447","103.4973"
"977","43.0837","102.1486"
"978","43.1227","101.1665"
"979","43.1617","96.9776"
"980","43.2007","90.7842"
"981","43.2397","87.8783"
"982","43.2787","88.4108"
"983","43.3177","86.8514"
"984","43.3567","85.0518"
"985","43.3957","84.7489"
"986","43.4347","85.3776"
"987","43.4737","87.1730"
"988","43.5127","86.0594"
"989","43.5517","85.1949"
"990","43.5907","85.6058"
"991","43.6297","87.2048"
"992","43.6687","89.4278"
"993","43.7077","88.8229"
"994","43.7467","92.6761"
"995","43.7857","92.0371"
"996","43.8247","94.1825"
"997","43.8637","103.4243"
"998","43.9027","108.6158"
"999","43.9417","118.1644"
"1000","43.9807","125.4499"
"1001","44.0197","122.8529"
"1002","44.0587","114.6303"
"1003","44.0977","109.8950"
"1004","44.1367","103.9881"
"1005","44.1757","97.9854"
"1006","44.2147","95.1400"
"1007","44.2537","98.1709"
"1008","44.2927","96.2925"
"1009","44.3317","93.3548"
"1010","44.3707","93.0013"
"1011","44.4097","94.9057"
"1012","44.4487","88.2150"
"1013","44.4877","86.9424"
"1014","44.5267","86.7395"
"1015","44.5657","86.1076"
"1016","44.6047","87.7438"
"1017","44.6437","84.2874"
"1018","44.6827","85.1785"
"1019","44.7217","85.9896"
"1020","44.7607","84.5910"
"1021","44.7997","85.4835"
"1022","44.8387","87.8139"
"1023","44.8777","84.8786"
"1024","44.9167","82.4412"
"1025","44.9557","83.6370"
"1026","44.9947","81.2443"
"1027","45.0337","83.1253"
"1028","45.0727","84.1810"
"1029","45.1117","82.9424"
"1030","45.1507","82.0118"
"1031","45.1897","81.9844"
"1032","45.2287","82.2926"
"1033","45.2677","84.3139"
"1034","45.3067","84.0073"
"1035","45.3457","85.4529"
"1036","45.3847","85.5972"
"1037","45.4237","84.9902"
"1038","45.4627","87.4466"
"1039","45.5017","88.3119"
"1040","45.5407","86.8490"
"1041","45.5797","87.4479"
"1042","45.6187","87.1683"
"1043","45.6577","84.2556"
"1044","45.6967","84.6235"
"1045","45.7357","84.2829"
"1046","45.7747","85.0517"
"1047","45.8137","86.1202"
"1048","45.8527","85.0994"
"1049","45.8917","86.0129"
"1050","45.9307","85.0547"
"1051","45.9697","83.0118"
"1052","46.0087","84.9803"
"1053","46.0477","85.7908"
"1054","46.0867","84.5623"
"1055","46.1257","83.6036"
"1056","46.1647","84.3914"
"1057","46.2037","82.4402"
"1058","46.2427","81.2506"
"1059","46.2817","83.2575"
"1060","46.3207","85.9694"
"1061","46.3597","87.3771"
"1062","46.3987","87.7801"
"1063","46.4377","88.8175"
"1064","46.4767","86.7297"
"1065","46.5157","84.0647"
"1066","46.5547","82.5057"
"1067","46.5937","82.2682"
"1068","46.6327","82.7729"
"1069","46.6717","83.1272"
"1070","46.7107","83.0025"
"1071","46.7497","81.8367"
"1072","46.7887","81.3548"
"1073","46.8277","81.4077"
"1074","46.8667","81.0766"
"1075","46.9057","80.0419"
"1076","46.9447","80.9147"
"1077","46.9837","81.5070"
"1078","47.0227","80.6540"
"1079","47.0617","81.4069"
"1080","47.1007","82.3464"
"1081","47.1397","80.3410"
"1082","47.1787","81.5054"
"1083","47.2177","82.1079"
"1084","47.2567","82.0937"
"1085","47.2957","83.2302"
"1086","47.3347","83.8553"
"1087","47.3737","83.2382"
"1088","47.4127","80.3977"
"1089","47.4517","79.1312"
"1090","47.4907","79.9770"
"1091","47.5297","80.8132"
"1092","47.5687","77.5702"
"1093","47.6077","78.5490"
"1094","47.6467","81.6369"
"1095","47.6857","81.0540"
"1096","47.7247","81.9307"
"1097","47.7637","81.5798"
"1098","47.8027","80.1594"
"1099","47.8417","78.6620"
"1100","47.8807","80.6163"
"1101","47.9197","82.1463"
"1102","47.9587","81.0912"
"1103","47.9977","81.5099"
"1104","48.0367","79.6015"
"1105","48.0757","80.5058"
"1106","48.1147","81.7480"
"1107","48.1537","80.6140"
"1108","48.1927","83.1225"
"1109","48.2317","84.4947"
"1110","48.2707","81.8857"
"1111","48.3097","81.6915"
"1112","48.3487","80.1898"
"1113","48.3877","81.3768"
"1114","48.4267","80.2880"
"1115","48.4657","81.2186"
"1116","48.5047","81.1379"
"1117","48.5437","79.4174"
"1118","48.5827","79.2250"
"1119","48.6217","79.2763"
"1120","48.6607","79.0215"
"1121","48.6997","78.5131"
"1122","48.7387","80.8545"
"1123","48.7777","81.7488"
"1124","48.8167","81.3362"
"1125","48.8557","81.0071"
"1126","48.8947","80.5979"
"1127","48.9337","78.1919"
"1128","48.9727","79.8087"
"1129","49.0117","79.8088"
"1130","49.0507","78.6874"
"1131","49.0897","77.4669"
"1132","49.1287","77.1426"
"1133","49.1677","78.3990"
"1134","49.2067","77.4943"
"1135","49.2457","78.3401"
"1136","49.2847","77.1857"
"1137","49.3237","79.7543"
"1138","49.3627","81.0405"
"1139","49.4017","80.0142"
"1140","49.4407","80.7756"
"1141","49.4797","81.4805"
"1142","49.5187","81.5222"
"1143","49.5577","80.0036"
"1144","49.5967","80.3276"
"1145","49.6357","79.0082"
"1146","49.6747","78.8177"
"1147","49.7137","78.3684"
"1148","49.7527","80.1035"
"1149","49.7917","81.3379"
"1150","49.8307","81.9164"
"1151","49.8697","80.1357"
"1152","49.9087","79.3461"
"1153","49.9477","79.7155"
"1154","49.9867","81.1401"
"1155","50.0257","80.9594"
"1156","50.0647","79.9240"
"1157","50.1037","79.2485"
"1158","50.1427","77.9841"
"1159","50.1817","78.1652"
"1160","50.2207","78.6907"
"1161","50.2597","80.0607"
"1162","50.2987","80.8204"
"1163","50.3377","79.8668"
"1164","50.3767","79.1035"
"1165","50.4157","79.7256"
"1166","50.4547","81.8288"
"1167","50.4937","80.7063"
"1168","50.5327","79.0230"
"1169","50.5717","80.5917"
"1170","50.6107","83.1978"
"1171","50.6497","83.3872"
"1172","50.6887","81.9648"
"1173","50.7277","83.5367"
"1174","50.7667","84.9087"
"1175","50.8057","87.9392"
"1176","50.8447","92.2792"
"1177","50.8837","97.6753"
"1178","50.9227","100.6739"
"1179","50.9617","104.7618"
"1180","51.0007","104.9430"
"1181","51.0397","101.0712"
"1182","51.0787","101.2297"
"1183","51.1177","100.0892"
"1184","51.1567","100.1625"
"1185","51.1957","98.9127"
"1186","51.2347","97.2414"
"1187","51.2737","95.1665"
"1188","51.3127","93.6404"
"1189","51.3517","93.1246"
"1190","51.3907","89.3568"
"1191","51.4297","86.0836"
"1192","51.4687","85.2713"
"1193","51.5077","85.3025"
"1194","51.5467","83.5526"
"1195","51.5857","82.1835"
"1196","51.6247","82.0742"
"1197","51.6637","80.5039"
"1198","51.7027","82.4900"
"1199","51.7417","80.2366"
"1200","51.7807","79.1350"
"1201","51.8197","78.5732"
"1202","51.8587","83.3315"
"1203","51.8977","78.4185"
"1204","51.9367","79.4926"
"1205","51.9757","82.1617"
"1206","52.0147","79.9001"
"1207","52.0537","80.3196"
"1208","52.0927","82.1524"
"1209","52.1317","84.1054"
"1210","52.1707","81.8463"
"1211","52.2097","84.8456"
"1212","52.2487","86.8239"
"1213","52.2877","86.7746"
"1214","52.3267","88.6132"
"1215","52.3657","88.7210"
"1216","52.4047","87.8411"
"1217","52.4437","85.9471"
"1218","52.4827","82.3648"
"1219","52.5217","85.1957"
"1220","52.5607","83.0456"
"1221","52.5997","83.5313"
"1222","52.6387","80.2219"
"1223","52.6777","81.2869"
"1224","52.7167","80.0124"
"1225","52.7557","82.7964"
"1226","52.7947","84.2544"
"1227","52.8337","82.4867"
"1228","52.8727","81.1963"
"1229","52.9117","81.4611"
"1230","52.9507","81.2302"
"1231","52.9897","82.5527"
"1232","53.0287","82.3915"
"1233","53.0677","82.9252"
"1234","53.1067","85.3294"
"1235","53.1457","86.0989"
"1236","53.1847","85.4482"
"1237","53.2237","84.4679"
"1238","53.2627","84.8776"
"1239","53.3017","84.0633"
"1240","53.3407","85.4566"
"1241","53.3797","84.9841"
"1242","53.4187","84.4628"
"1243","53.4577","85.0168"
"1244","53.4967","83.6603"
"1245","53.5357","82.5648"
"1246","53.5747","83.8511"
"1247","53.6137","82.7325"
"1248","53.6527","82.6231"
"1249","53.6917","81.7570"
"1250","53.7307","81.1235"
"1251","53.7697","81.4186"
"1252","53.8087","81.2829"
"1253","53.8477","81.9792"
"1254","53.8867","81.3187"
"1255","53.9257","81.5201"
"1256","53.9647","80.8093"
"1257","54.0037","80.1174"
"1258","54.0427","80.7040"
"1259","54.0817","80.3163"
"1260","54.1207","79.2400"
"1261","54.1597","77.9463"
"1262","54.1987","78.2835"
"1263","54.2377","78.6373"
"1264","54.2767","79.3808"
"1265","54.3157","79.9411"
"1266","54.3547","79.3759"
"1267","54.3937","79.3931"
"1268","54.4327","78.3484"
"1269","54.4717","78.7527"
"1270","54.5107","79.0804"
"1271","54.5497","79.2478"
"1272","54.5887","79.4931"
"1273","54.6277","79.5698"
"1274","54.6667","80.5502"
"1275","54.7057","79.7059"
"1276","54.7447","77.4454"
"1277","54.7837","77.7105"
"1278","54.8227","79.0407"
"1279","54.8617","78.8366"
"1280","54.9007","79.1396"
"1281","54.9397","79.2133"
"1282","54.9787","77.6006"
"1283","55.0177","79.8669"
"1284","55.0567","80.4704"
"1285","55.0957","79.9788"
"1286","55.1347","78.8877"
"1287","55.1737","79.9859"
"1288","55.2127","80.2171"
"1289","55.2517","80.7695"
"1290","55.2907","81.5556"
"1291","55.3297","81.6971"
"1292","55.3687","81.6827"
"1293","55.4077","83.3928"
"1294","55.4467","80.7529"
"1295","55.4857","80.4764"
"1296","55.5247","81.3585"
"1297","55.5637","79.5183"
"1298","55.6027","81.2664"
"1299","55.6417","82.0102"
"1300","55.6807","79.0005"
"1301","55.7197","80.8145"
"1302","55.7587","80.2616"
"1303","55.7977","82.3872"
"1304","55.8367","82.5929"
"1305","55.8757","83.0931"
"1306","55.9147","80.0954"
"1307","55.9537","79.3385"
"1308","55.9927","77.7759"
"1309","56.0317","78.0574"
"1310","56.0707","78.9596"
"1311","56.1097","78.0176"
"1312","56.1487","78.6544"
"1313","56.1877","80.8805"
"1314","56.2267","77.4925"
"1315","56.2657","80.2686"
"1316","56.3047","81.0733"
"1317","56.3437","78.9573"
"1318","56.3827","83.5073"
"1319","56.4217","80.6888"
"1320","56.4607","87.3153"
"1321","56.4997","87.0208"
"1322","56.5387","87.2882"
"1323","56.5777","89.4208"
"1324","56.6167","86.0398"
"1325","56.6557","85.2382"
"1326","56.6947","87.3902"
"1327","56.7337","86.6489"
"1328","56.7727","82.8102"
"1329","56.8117","82.8860"
"1330","56.8507","80.4934"
"1331","56.8897","81.4548"
"1332","56.9287","82.1964"
"1333","56.9677","84.7131"
"1334","57.0067","83.3919"
"1335","57.0457","80.2424"
"1336","57.0847","81.7315"
"1337","57.1237","82.5855"
"1338","57.1627","81.3892"
"1339","57.2017","85.1483"
"1340","57.2407","83.2551"
"1341","57.2797","84.0173"
"1342","57.3187","82.9236"
"1343","57.3577","83.0498"
"1344","57.3967","82.9272"
"1345","57.4357","81.5542"
"1346","57.4747","80.9499"
"1347","57.5137","80.2792"
"1348","57.5527","77.9499"
"1349","57.5917","78.8353"
"1350","57.6307","80.4070"
"1351","57.6697","80.0659"
"1352","57.7087","79.8205"
"1353","57.7477","79.6011"
"1354","57.7867","78.8727"
"1355","57.8257","80.4171"
"1356","57.8647","82.6569"
"1357","57.9037","83.4696"
"1358","57.9427","81.5950"
"1359","57.9817","81.8389"
"1360","58.0207","81.5952"
"1361","58.0597","79.9179"
"1362","58.0987","79.5056"
"1363","58.1377","78.7450"
"1364","58.1767","78.6794"
"1365","58.2157","79.2910"
"1366","58.2547","79.9952"
"1367","58.2937","79.7513"
"1368","58.3327","79.1079"
"1369","58.3717","78.6511"
"1370","58.4107","80.8628"
"1371","58.4497","82.0295"
"1372","58.4887","79.1111"
"1373","58.5277","80.6171"
"1374","58.5667","82.5412"
"1375","58.6057","82.7522"
"1376","58.6447","83.0308"
"1377","58.6837","81.9041"
"1378","58.7227","81.5427"
"1379","58.7617","80.4243"
"1380","58.8007","80.7703"
"1381","58.8397","80.1328"
"1382","58.8787","80.3426"
"1383","58.9177","80.7011"
"1384","58.9567","81.2823"
"1385","58.9957","83.3089"
"1386","59.0347","82.0287"
"1387","59.0737","81.2534"
"1388","59.1127","81.4377"
"1389","59.1517","81.9164"
"1390","59.1907","81.9625"
"1391","59.2297","87.4585"
"1392","59.2687","93.0330"
"1393","59.3077","92.2541"
"1394","59.3467","92.6521"
"1395","59.3857","87.6737"
"1396","59.4247","87.6483"
"1397","59.4637","91.5998"
"1398","59.5027","93.9978"
"1399","59.5417","90.9323"
"1400","59.5807","92.2844"
"1401","59.6197","89.0939"
"1402","59.6587","87.2921"
"1403","59.6977","86.3522"
"1404","59.7367","84.4126"
"1405","59.7757","84.4544"
"1406","59.8147","81.0455"
"1407","59.8537","83.2088"
"1408","59.8927","80.5030"
"1409","59.9317","80.3823"