File: mof-801_xrd/5L-4.csv
"No.","Pos. [°2θ]","Iobs [cps]"
"1","5.0197","169.4367"
"2","5.0587","169.1080"
"3","5.0977","165.0576"
"4","5.1367","163.6872"
"5","5.1757","163.2292"
"6","5.2147","158.3018"
"7","5.2537","158.4357"
"8","5.2927","157.3406"
"9","5.3317","156.3019"
"10","5.3707","156.6541"
"11","5.4097","154.1549"
"12","5.4487","149.3462"
"13","5.4877","152.3374"
"14","5.5267","146.2744"
"15","5.5657","146.7170"
"16","5.6047","146.0087"
"17","5.6437","145.4959"
"18","5.6827","143.2394"
"19","5.7217","143.1017"
"20","5.7607","140.9627"
"21","5.7997","141.4481"
"22","5.8387","140.6604"
"23","5.8777","141.4261"
"24","5.9167","139.1697"
"25","5.9557","136.4409"
"26","5.9947","134.9495"
"27","6.0337","135.0924"
"28","6.0727","136.7309"
"29","6.1117","135.1778"
"30","6.1507","137.4152"
"31","6.1897","137.7562"
"32","6.2287","135.8996"
"33","6.2677","131.3621"
"34","6.3067","132.6969"
"35","6.3457","134.8305"
"36","6.3847","134.2040"
"37","6.4237","133.7735"
"38","6.4627","131.8014"
"39","6.5017","132.1224"
"40","6.5407","131.6865"
"41","6.5797","128.9664"
"42","6.6187","131.2758"
"43","6.6577","133.5374"
"44","6.6967","133.9755"
"45","6.7357","133.2809"
"46","6.7747","131.0193"
"47","6.8137","130.4980"
"48","6.8527","131.3748"
"49","6.8917","131.8789"
"50","6.9307","132.1215"
"51","6.9697","131.5230"
"52","7.0087","130.2800"
"53","7.0477","129.8221"
"54","7.0867","130.5327"
"55","7.1257","129.0646"
"56","7.1647","127.3119"
"57","7.2037","127.6528"
"58","7.2427","126.1865"
"59","7.2817","126.6513"
"60","7.3207","127.4873"
"61","7.3597","124.5913"
"62","7.3987","123.5436"
"63","7.4377","125.5277"
"64","7.4767","128.0630"
"65","7.5157","127.2535"
"66","7.5547","124.5815"
"67","7.5937","123.7785"
"68","7.6327","125.3901"
"69","7.6717","127.0171"
"70","7.7107","128.3265"
"71","7.7497","129.7016"
"72","7.7887","130.8946"
"73","7.8277","133.7955"
"74","7.8667","135.3301"
"75","7.9057","137.1818"
"76","7.9447","140.2944"
"77","7.9837","141.8554"
"78","8.0227","149.3666"
"79","8.0617","159.3007"
"80","8.1007","166.5209"
"81","8.1397","176.9081"
"82","8.1787","187.1553"
"83","8.2177","204.7590"
"84","8.2567","230.3517"
"85","8.2957","258.4796"
"86","8.3347","295.8110"
"87","8.3737","341.0037"
"88","8.4127","397.2806"
"89","8.4517","482.2466"
"90","8.4907","577.0336"
"91","8.5297","666.0490"
"92","8.5687","701.7791"
"93","8.6077","619.7568"
"94","8.6467","455.7310"
"95","8.6857","307.2006"
"96","8.7247","222.3767"
"97","8.7637","185.8511"
"98","8.8027","167.5667"
"99","8.8417","156.6421"
"100","8.8807","148.7980"
"101","8.9197","144.5176"
"102","8.9587","139.2996"
"103","8.9977","140.7847"
"104","9.0367","136.6227"
"105","9.0757","136.3881"
"106","9.1147","133.8586"
"107","9.1537","132.6859"
"108","9.1927","136.8916"
"109","9.2317","132.6258"
"110","9.2707","132.6563"
"111","9.3097","134.6507"
"112","9.3487","134.8294"
"113","9.3877","138.9947"
"114","9.4267","141.2852"
"115","9.4657","141.4391"
"116","9.5047","147.5563"
"117","9.5437","153.8304"
"118","9.5827","164.1513"
"119","9.6217","175.9467"
"120","9.6607","188.2222"
"121","9.6997","208.6796"
"122","9.7387","234.6804"
"123","9.7777","271.9242"
"124","9.8167","315.4864"
"125","9.8557","353.3215"
"126","9.8947","369.3218"
"127","9.9337","334.1684"
"128","9.9727","265.1215"
"129","10.0117","201.3158"
"130","10.0507","166.3560"
"131","10.0897","146.1759"
"132","10.1287","135.3134"
"133","10.1677","131.9015"
"134","10.2067","130.4570"
"135","10.2457","126.2786"
"136","10.2847","127.3581"
"137","10.3237","126.1518"
"138","10.3627","124.9543"
"139","10.4017","126.0775"
"140","10.4407","124.5912"
"141","10.4797","122.4324"
"142","10.5187","121.9464"
"143","10.5577","120.8025"
"144","10.5967","120.9717"
"145","10.6357","119.7020"
"146","10.6747","119.9076"
"147","10.7137","119.7266"
"148","10.7527","118.3967"
"149","10.7917","118.4654"
"150","10.8307","118.3742"
"151","10.8697","118.8877"
"152","10.9087","119.3165"
"153","10.9477","118.9866"
"154","10.9867","119.0527"
"155","11.0257","118.5569"
"156","11.0647","116.7792"
"157","11.1037","116.8742"
"158","11.1427","117.5228"
"159","11.1817","117.7453"
"160","11.2207","118.8996"
"161","11.2597","117.7029"
"162","11.2987","116.7132"
"163","11.3377","115.5337"
"164","11.3767","115.4563"
"165","11.4157","115.5603"
"166","11.4547","115.5997"
"167","11.4937","115.0743"
"168","11.5327","113.9167"
"169","11.5717","115.3856"
"170","11.6107","114.9411"
"171","11.6497","115.6643"
"172","11.6887","116.9724"
"173","11.7277","116.3644"
"174","11.7667","114.1861"
"175","11.8057","112.5427"
"176","11.8447","114.5835"
"177","11.8837","115.1948"
"178","11.9227","112.8918"
"179","11.9617","112.7253"
"180","12.0007","116.5055"
"181","12.0397","115.0819"
"182","12.0787","113.5985"
"183","12.1177","111.1870"
"184","12.1567","113.0773"
"185","12.1957","111.7266"
"186","12.2347","110.4713"
"187","12.2737","111.5460"
"188","12.3127","110.5466"
"189","12.3517","111.3110"
"190","12.3907","110.7742"
"191","12.4297","110.0138"
"192","12.4687","109.2402"
"193","12.5077","111.8794"
"194","12.5467","110.1573"
"195","12.5857","108.6020"
"196","12.6247","108.6888"
"197","12.6637","109.6289"
"198","12.7027","109.1060"
"199","12.7417","108.8500"
"200","12.7807","109.4458"
"201","12.8197","109.9989"
"202","12.8587","107.8900"
"203","12.8977","107.0066"
"204","12.9367","109.2118"
"205","12.9757","109.4867"
"206","13.0147","109.4125"
"207","13.0537","109.3303"
"208","13.0927","107.6385"
"209","13.1317","108.0279"
"210","13.1707","109.4255"
"211","13.2097","107.5759"
"212","13.2487","108.9768"
"213","13.2877","105.8290"
"214","13.3267","108.1139"
"215","13.3657","108.2006"
"216","13.4047","105.9708"
"217","13.4437","106.7889"
"218","13.4827","106.9469"
"219","13.5217","106.3328"
"220","13.5607","107.7931"
"221","13.5997","107.3603"
"222","13.6387","105.2133"
"223","13.6777","105.5848"
"224","13.7167","107.6944"
"225","13.7557","106.7706"
"226","13.7947","108.0794"
"227","13.8337","110.5339"
"228","13.8727","112.2851"
"229","13.9117","114.7031"
"230","13.9507","118.4320"
"231","13.9897","120.0922"
"232","14.0287","119.8916"
"233","14.0677","117.8826"
"234","14.1067","112.1182"
"235","14.1457","109.7536"
"236","14.1847","107.0657"
"237","14.2237","104.8426"
"238","14.2627","105.2422"
"239","14.3017","104.3120"
"240","14.3407","102.6431"
"241","14.3797","102.8456"
"242","14.4187","103.2508"
"243","14.4577","103.9098"
"244","14.4967","104.5510"
"245","14.5357","104.0662"
"246","14.5747","103.6443"
"247","14.6137","104.0450"
"248","14.6527","103.0365"
"249","14.6917","104.3665"
"250","14.7307","104.4118"
"251","14.7697","103.1636"
"252","14.8087","102.1927"
"253","14.8477","101.5452"
"254","14.8867","100.6473"
"255","14.9257","98.0148"
"256","14.9647","100.2992"
"257","15.0037","101.3111"
"258","15.0427","98.4552"
"259","15.0817","98.0922"
"260","15.1207","99.1995"
"261","15.1597","100.8598"
"262","15.1987","100.2871"
"263","15.2377","101.1513"
"264","15.2767","99.5629"
"265","15.3157","98.0763"
"266","15.3547","99.7136"
"267","15.3937","100.0195"
"268","15.4327","98.2709"
"269","15.4717","99.1536"
"270","15.5107","98.3936"
"271","15.5497","98.1220"
"272","15.5887","98.2841"
"273","15.6277","98.1694"
"274","15.6667","98.5415"
"275","15.7057","97.0718"
"276","15.7447","97.5506"
"277","15.7837","98.5085"
"278","15.8227","96.2240"
"279","15.8617","98.4795"
"280","15.9007","97.5205"
"281","15.9397","98.3859"
"282","15.9787","97.4380"
"283","16.0177","99.0416"
"284","16.0567","95.9788"
"285","16.0957","94.1957"
"286","16.1347","96.6610"
"287","16.1737","97.4571"
"288","16.2127","97.8648"
"289","16.2517","98.8607"
"290","16.2907","97.9481"
"291","16.3297","96.4204"
"292","16.3687","96.8277"
"293","16.4077","98.9496"
"294","16.4467","99.3708"
"295","16.4857","98.3971"
"296","16.5247","98.3014"
"297","16.5637","96.2618"
"298","16.6027","94.6887"
"299","16.6417","92.3356"
"300","16.6807","93.3353"
"301","16.7197","94.1738"
"302","16.7587","96.4689"
"303","16.7977","92.3870"
"304","16.8367","95.8793"
"305","16.8757","96.4327"
"306","16.9147","95.5526"
"307","16.9537","100.0680"
"308","16.9927","97.4084"
"309","17.0317","94.7058"
"310","17.0707","96.3363"
"311","17.1097","93.3944"
"312","17.1487","96.8602"
"313","17.1877","97.7721"
"314","17.2267","95.0483"
"315","17.2657","94.9396"
"316","17.3047","93.9704"
"317","17.3437","97.6302"
"318","17.3827","97.4634"
"319","17.4217","95.0903"
"320","17.4607","95.5093"
"321","17.4997","93.4831"
"322","17.5387","94.3031"
"323","17.5777","94.7953"
"324","17.6167","94.8604"
"325","17.6557","93.1703"
"326","17.6947","94.7175"
"327","17.7337","91.9179"
"328","17.7727","91.7899"
"329","17.8117","94.3426"
"330","17.8507","94.5794"
"331","17.8897","95.0499"
"332","17.9287","93.4292"
"333","17.9677","95.4245"
"334","18.0067","94.4002"
"335","18.0457","93.0979"
"336","18.0847","93.9309"
"337","18.1237","93.3577"
"338","18.1627","92.7359"
"339","18.2017","94.3219"
"340","18.2407","94.4779"
"341","18.2797","92.2877"
"342","18.3187","94.8153"
"343","18.3577","95.4071"
"344","18.3967","92.9593"
"345","18.4357","93.5316"
"346","18.4747","94.4153"
"347","18.5137","93.5661"
"348","18.5527","93.3762"
"349","18.5917","92.3558"
"350","18.6307","91.4088"
"351","18.6697","91.8741"
"352","18.7087","91.8875"
"353","18.7477","91.3123"
"354","18.7867","91.8105"
"355","18.8257","93.3920"
"356","18.8647","93.1016"
"357","18.9037","91.1199"
"358","18.9427","89.3655"
"359","18.9817","89.8504"
"360","19.0207","92.8335"
"361","19.0597","92.5519"
"362","19.0987","91.6217"
"363","19.1377","92.2304"
"364","19.1767","90.2304"
"365","19.2157","91.1324"
"366","19.2547","93.3438"
"367","19.2937","92.9677"
"368","19.3327","91.6434"
"369","19.3717","92.0100"
"370","19.4107","93.0631"
"371","19.4497","92.9313"
"372","19.4887","92.8790"
"373","19.5277","91.6647"
"374","19.5667","91.0369"
"375","19.6057","90.5099"
"376","19.6447","93.5492"
"377","19.6837","94.4017"
"378","19.7227","97.4245"
"379","19.7617","100.2766"
"380","19.8007","105.6855"
"381","19.8397","109.3192"
"382","19.8787","109.0701"
"383","19.9177","108.4291"
"384","19.9567","104.8661"
"385","19.9957","101.8782"
"386","20.0347","95.8138"
"387","20.0737","93.9014"
"388","20.1127","93.3972"
"389","20.1517","92.4840"
"390","20.1907","89.5222"
"391","20.2297","92.8528"
"392","20.2687","93.0949"
"393","20.3077","90.9513"
"394","20.3467","92.3394"
"395","20.3857","91.9210"
"396","20.4247","89.2401"
"397","20.4637","91.5466"
"398","20.5027","90.8013"
"399","20.5417","87.4659"
"400","20.5807","89.9156"
"401","20.6197","89.3155"
"402","20.6587","93.4986"
"403","20.6977","90.7486"
"404","20.7367","88.2527"
"405","20.7757","93.4912"
"406","20.8147","92.0297"
"407","20.8537","90.9933"
"408","20.8927","92.0812"
"409","20.9317","92.3035"
"410","20.9707","88.7169"
"411","21.0097","90.2542"
"412","21.0487","91.7601"
"413","21.0877","92.0281"
"414","21.1267","95.0189"
"415","21.1657","91.6395"
"416","21.2047","89.2150"
"417","21.2437","93.9106"
"418","21.2827","93.5627"
"419","21.3217","95.4079"
"420","21.3607","96.7708"
"421","21.3997","97.0639"
"422","21.4387","99.0308"
"423","21.4777","102.8906"
"424","21.5167","110.0800"
"425","21.5557","118.3635"
"426","21.5947","136.5746"
"427","21.6337","154.2728"
"428","21.6727","167.0913"
"429","21.7117","162.2920"
"430","21.7507","145.1103"
"431","21.7897","124.2239"
"432","21.8287","110.7909"
"433","21.8677","103.1008"
"434","21.9067","100.3609"
"435","21.9457","98.2543"
"436","21.9847","95.8189"
"437","22.0237","92.9680"
"438","22.0627","95.0182"
"439","22.1017","96.3625"
"440","22.1407","96.2682"
"441","22.1797","97.1309"
"442","22.2187","99.2952"
"443","22.2577","100.3264"
"444","22.2967","99.6275"
"445","22.3357","97.2477"
"446","22.3747","96.1255"
"447","22.4137","94.7762"
"448","22.4527","92.2055"
"449","22.4917","92.4605"
"450","22.5307","95.0141"
"451","22.5697","94.4151"
"452","22.6087","93.2224"
"453","22.6477","94.4873"
"454","22.6867","95.3940"
"455","22.7257","96.4422"
"456","22.7647","97.8113"
"457","22.8037","97.8678"
"458","22.8427","95.2617"
"459","22.8817","93.7410"
"460","22.9207","96.0408"
"461","22.9597","94.6766"
"462","22.9987","92.2973"
"463","23.0377","94.4740"
"464","23.0767","94.2165"
"465","23.1157","92.7581"
"466","23.1547","93.5854"
"467","23.1937","92.9469"
"468","23.2327","91.6258"
"469","23.2717","90.4136"
"470","23.3107","91.2763"
"471","23.3497","92.0815"
"472","23.3887","91.5033"
"473","23.4277","91.3587"
"474","23.4667","90.8176"
"475","23.5057","90.2567"
"476","23.5447","89.8629"
"477","23.5837","89.4885"
"478","23.6227","90.4978"
"479","23.6617","90.7190"
"480","23.7007","90.9701"
"481","23.7397","92.3934"
"482","23.7787","93.2083"
"483","23.8177","92.5507"
"484","23.8567","92.4605"
"485","23.8957","90.0630"
"486","23.9347","91.3422"
"487","23.9737","90.6392"
"488","24.0127","92.1829"
"489","24.0517","95.4837"
"490","24.0907","93.4683"
"491","24.1297","93.6106"
"492","24.1687","95.3310"
"493","24.2077","100.1860"
"494","24.2467","105.6648"
"495","24.2857","109.0219"
"496","24.3247","118.0923"
"497","24.3637","129.0641"
"498","24.4027","133.8637"
"499","24.4417","134.4593"
"500","24.4807","118.7052"
"501","24.5197","114.1891"
"502","24.5587","102.4502"
"503","24.5977","98.6106"
"504","24.6367","94.9216"
"505","24.6757","96.6061"
"506","24.7147","96.8744"
"507","24.7537","96.7757"
"508","24.7927","93.9374"
"509","24.8317","97.4712"
"510","24.8707","95.2796"
"511","24.9097","97.4167"
"512","24.9487","92.6043"
"513","24.9877","93.7754"
"514","25.0267","93.7025"
"515","25.0657","90.5822"
"516","25.1047","94.3373"
"517","25.1437","96.4326"
"518","25.1827","97.3532"
"519","25.2217","95.4412"
"520","25.2607","95.7841"
"521","25.2997","99.2676"
"522","25.3387","99.2001"
"523","25.3777","99.3964"
"524","25.4167","101.7248"
"525","25.4557","100.8557"
"526","25.4947","102.3461"
"527","25.5337","100.3694"
"528","25.5727","97.7268"
"529","25.6117","100.3683"
"530","25.6507","103.7176"
"531","25.6897","105.9839"
"532","25.7287","112.6045"
"533","25.7677","122.2997"
"534","25.8067","137.4310"
"535","25.8457","152.4440"
"536","25.8847","169.8475"
"537","25.9237","175.2644"
"538","25.9627","165.1079"
"539","26.0017","145.3730"
"540","26.0407","124.3691"
"541","26.0797","109.9651"
"542","26.1187","103.9829"
"543","26.1577","99.3160"
"544","26.1967","97.2567"
"545","26.2357","95.9259"
"546","26.2747","95.3171"
"547","26.3137","95.4923"
"548","26.3527","94.0527"
"549","26.3917","94.2462"
"550","26.4307","93.6807"
"551","26.4697","93.6420"
"552","26.5087","93.7506"
"553","26.5477","94.1817"
"554","26.5867","94.7788"
"555","26.6257","93.9183"
"556","26.6647","93.1277"
"557","26.7037","92.4554"
"558","26.7427","90.8928"
"559","26.7817","92.8992"
"560","26.8207","95.7521"
"561","26.8597","93.5636"
"562","26.8987","92.8971"
"563","26.9377","94.3985"
"564","26.9767","94.1986"
"565","27.0157","92.7195"
"566","27.0547","92.9111"
"567","27.0937","91.6206"
"568","27.1327","91.6684"
"569","27.1717","91.3177"
"570","27.2107","91.4239"
"571","27.2497","90.5650"
"572","27.2887","92.5998"
"573","27.3277","91.2035"
"574","27.3667","91.3732"
"575","27.4057","89.7312"
"576","27.4447","90.7247"
"577","27.4837","88.8522"
"578","27.5227","88.0674"
"579","27.5617","89.4190"
"580","27.6007","88.6439"
"581","27.6397","88.1840"
"582","27.6787","87.7157"
"583","27.7177","88.5075"
"584","27.7567","87.2638"
"585","27.7957","89.9256"
"586","27.8347","89.3056"
"587","27.8737","89.5856"
"588","27.9127","89.2413"
"589","27.9517","90.8631"
"590","27.9907","91.3730"
"591","28.0297","92.4357"
"592","28.0687","92.8014"
"593","28.1077","91.8332"
"594","28.1467","90.9354"
"595","28.1857","97.1078"
"596","28.2247","95.3941"
"597","28.2637","98.4469"
"598","28.3027","94.4303"
"599","28.3417","91.8038"
"600","28.3807","89.8234"
"601","28.4197","88.5267"
"602","28.4587","89.9204"
"603","28.4977","87.0606"
"604","28.5367","87.7619"
"605","28.5757","89.7926"
"606","28.6147","88.4779"
"607","28.6537","84.9921"
"608","28.6927","87.4810"
"609","28.7317","87.7208"
"610","28.7707","85.4426"
"611","28.8097","86.2254"
"612","28.8487","89.0562"
"613","28.8877","87.0476"
"614","28.9267","89.8084"
"615","28.9657","85.4760"
"616","29.0047","86.3314"
"617","29.0437","88.1032"
"618","29.0827","89.6195"
"619","29.1217","85.8394"
"620","29.1607","85.9849"
"621","29.1997","88.6076"
"622","29.2387","87.9939"
"623","29.2777","90.2470"
"624","29.3167","92.1148"
"625","29.3557","92.3156"
"626","29.3947","93.5013"
"627","29.4337","95.9664"
"628","29.4727","100.8756"
"629","29.5117","108.0881"
"630","29.5507","114.8785"
"631","29.5897","115.9826"
"632","29.6287","114.2417"
"633","29.6677","109.5690"
"634","29.7067","104.9214"
"635","29.7457","103.1150"
"636","29.7847","105.1520"
"637","29.8237","110.9522"
"638","29.8627","124.1212"
"639","29.9017","144.6880"
"640","29.9407","168.5653"
"641","29.9797","188.3336"
"642","30.0187","192.8536"
"643","30.0577","180.0427"
"644","30.0967","156.7226"
"645","30.1357","131.7672"
"646","30.1747","112.8976"
"647","30.2137","104.0464"
"648","30.2527","97.5260"
"649","30.2917","91.6295"
"650","30.3307","90.6350"
"651","30.3697","90.8347"
"652","30.4087","90.5701"
"653","30.4477","88.4698"
"654","30.4867","86.1678"
"655","30.5257","86.9301"
"656","30.5647","87.8616"
"657","30.6037","88.3186"
"658","30.6427","88.1702"
"659","30.6817","86.5640"
"660","30.7207","86.0811"
"661","30.7597","87.9362"
"662","30.7987","88.0692"
"663","30.8377","86.6928"
"664","30.8767","87.6333"
"665","30.9157","86.2837"
"666","30.9547","84.8722"
"667","30.9937","84.7542"
"668","31.0327","83.9104"
"669","31.0717","86.7730"
"670","31.1107","85.8650"
"671","31.1497","85.1572"
"672","31.1887","86.1986"
"673","31.2277","84.8939"
"674","31.2667","83.0258"
"675","31.3057","83.0089"
"676","31.3447","84.1726"
"677","31.3837","83.8607"
"678","31.4227","83.4287"
"679","31.4617","83.5244"
"680","31.5007","82.0469"
"681","31.5397","83.2520"
"682","31.5787","84.5563"
"683","31.6177","83.3312"
"684","31.6567","84.5184"
"685","31.6957","85.0282"
"686","31.7347","85.2713"
"687","31.7737","86.2394"
"688","31.8127","85.0434"
"689","31.8517","85.2311"
"690","31.8907","85.3219"
"691","31.9297","89.4157"
"692","31.9687","88.7593"
"693","32.0077","86.8549"
"694","32.0467","88.0408"
"695","32.0857","85.9457"
"696","32.1247","85.7472"
"697","32.1637","87.9127"
"698","32.2027","87.0014"
"699","32.2417","85.6584"
"700","32.2807","82.9805"
"701","32.3197","84.3465"
"702","32.3587","85.6833"
"703","32.3977","82.8374"
"704","32.4367","84.1740"
"705","32.4757","83.1817"
"706","32.5147","84.4809"
"707","32.5537","82.5910"
"708","32.5927","87.6291"
"709","32.6317","83.7612"
"710","32.6707","88.1057"
"711","32.7097","89.7330"
"712","32.7487","95.8820"
"713","32.7877","102.6191"
"714","32.8267","107.7841"
"715","32.8657","114.2814"
"716","32.9047","112.0838"
"717","32.9437","106.1835"
"718","32.9827","98.3438"
"719","33.0217","88.0399"
"720","33.0607","85.5424"
"721","33.0997","84.1538"
"722","33.1387","85.4779"
"723","33.1777","86.2762"
"724","33.2167","85.0925"
"725","33.2557","85.2794"
"726","33.2947","83.9100"
"727","33.3337","81.2263"
"728","33.3727","82.5075"
"729","33.4117","82.2274"
"730","33.4507","81.8093"
"731","33.4897","81.2331"
"732","33.5287","81.2215"
"733","33.5677","80.3872"
"734","33.6067","79.9197"
"735","33.6457","80.6962"
"736","33.6847","80.2620"
"737","33.7237","79.4831"
"738","33.7627","81.5352"
"739","33.8017","81.9561"
"740","33.8407","83.1777"
"741","33.8797","83.2204"
"742","33.9187","81.1041"
"743","33.9577","81.7413"
"744","33.9967","81.0153"
"745","34.0357","80.8702"
"746","34.0747","79.6875"
"747","34.1137","78.6470"
"748","34.1527","79.2538"
"749","34.1917","79.6556"
"750","34.2307","80.2333"
"751","34.2697","80.6607"
"752","34.3087","80.1850"
"753","34.3477","79.3874"
"754","34.3867","80.3381"
"755","34.4257","82.7074"
"756","34.4647","83.1190"
"757","34.5037","83.5847"
"758","34.5427","85.0028"
"759","34.5817","85.8450"
"760","34.6207","90.1591"
"761","34.6597","97.9560"
"762","34.6987","106.5713"
"763","34.7377","117.1424"
"764","34.7767","123.2394"
"765","34.8157","120.3931"
"766","34.8547","113.1519"
"767","34.8937","104.2089"
"768","34.9327","97.1332"
"769","34.9717","90.6000"
"770","35.0107","86.4871"
"771","35.0497","84.5871"
"772","35.0887","84.2931"
"773","35.1277","82.2944"
"774","35.1667","81.6098"
"775","35.2057","81.7709"
"776","35.2447","81.5985"
"777","35.2837","84.1526"
"778","35.3227","85.1445"
"779","35.3617","83.4223"
"780","35.4007","83.6712"
"781","35.4397","85.6797"
"782","35.4787","83.6852"
"783","35.5177","83.2276"
"784","35.5567","84.7008"
"785","35.5957","84.8218"
"786","35.6347","84.7178"
"787","35.6737","84.4355"
"788","35.7127","86.4027"
"789","35.7517","84.8941"
"790","35.7907","91.3489"
"791","35.8297","98.9091"
"792","35.8687","102.0387"
"793","35.9077","102.3964"
"794","35.9467","99.7545"
"795","35.9857","94.1932"
"796","36.0247","89.5226"
"797","36.0637","85.5878"
"798","36.1027","80.8197"
"799","36.1417","82.5726"
"800","36.1807","80.9070"
"801","36.2197","75.7929"
"802","36.2587","77.9540"
"803","36.2977","78.3267"
"804","36.3367","78.2806"
"805","36.3757","77.5322"
"806","36.4147","79.0052"
"807","36.4537","76.8194"
"808","36.4927","79.2435"
"809","36.5317","77.4668"
"810","36.5707","76.9509"
"811","36.6097","78.3960"
"812","36.6487","75.8814"
"813","36.6877","78.3770"
"814","36.7267","79.5420"
"815","36.7657","77.8325"
"816","36.8047","79.1815"
"817","36.8437","78.3113"
"818","36.8827","76.0896"
"819","36.9217","79.2478"
"820","36.9607","78.5006"
"821","36.9997","74.2773"
"822","37.0387","76.5615"
"823","37.0777","77.2020"
"824","37.1167","78.5430"
"825","37.1557","76.7702"
"826","37.1947","77.2141"
"827","37.2337","76.8473"
"828","37.2727","76.8081"
"829","37.3117","77.3870"
"830","37.3507","77.4267"
"831","37.3897","74.6179"
"832","37.4287","77.7241"
"833","37.4677","78.9351"
"834","37.5067","76.1797"
"835","37.5457","75.4652"
"836","37.5847","77.0514"
"837","37.6237","79.0325"
"838","37.6627","80.5515"
"839","37.7017","80.0245"
"840","37.7407","80.5180"
"841","37.7797","79.0440"
"842","37.8187","77.3443"
"843","37.8577","78.4715"
"844","37.8967","77.9051"
"845","37.9357","76.9347"
"846","37.9747","76.2716"
"847","38.0137","78.3591"
"848","38.0527","77.1891"
"849","38.0917","76.7536"
"850","38.1307","76.2376"
"851","38.1697","75.7693"
"852","38.2087","78.2121"
"853","38.2477","77.4246"
"854","38.2867","76.7758"
"855","38.3257","78.8312"
"856","38.3647","79.4620"
"857","38.4037","79.5977"
"858","38.4427","81.2236"
"859","38.4817","80.6513"
"860","38.5207","81.4493"
"861","38.5597","88.0949"
"862","38.5987","96.9852"
"863","38.6377","105.6921"
"864","38.6767","111.3958"
"865","38.7157","112.3406"
"866","38.7547","108.6710"
"867","38.7937","103.7105"
"868","38.8327","96.1485"
"869","38.8717","89.2962"
"870","38.9107","85.9300"
"871","38.9497","83.2931"
"872","38.9887","79.4802"
"873","39.0277","77.1630"
"874","39.0667","77.5389"
"875","39.1057","77.9632"
"876","39.1447","76.7479"
"877","39.1837","77.0370"
"878","39.2227","77.9509"
"879","39.2617","78.0859"
"880","39.3007","79.0569"
"881","39.3397","78.2724"
"882","39.3787","77.5275"
"883","39.4177","77.1490"
"884","39.4567","77.7061"
"885","39.4957","77.4768"
"886","39.5347","77.4524"
"887","39.5737","78.8580"
"888","39.6127","77.2181"
"889","39.6517","78.5680"
"890","39.6907","78.9715"
"891","39.7297","76.5052"
"892","39.7687","76.2779"
"893","39.8077","75.2535"
"894","39.8467","77.0520"
"895","39.8857","78.6444"
"896","39.9247","77.5439"
"897","39.9637","76.6499"
"898","40.0027","78.9089"
"899","40.0417","77.6093"
"900","40.0807","75.9587"
"901","40.1197","77.7687"
"902","40.1587","77.0080"
"903","40.1977","77.8838"
"904","40.2367","79.6854"
"905","40.2757","79.5560"
"906","40.3147","84.3136"
"907","40.3537","82.8347"
"908","40.3927","85.2366"
"909","40.4317","84.3327"
"910","40.4707","84.0799"
"911","40.5097","81.3157"
"912","40.5487","80.0961"
"913","40.5877","79.1225"
"914","40.6267","79.4065"
"915","40.6657","78.8285"
"916","40.7047","77.4654"
"917","40.7437","78.3545"
"918","40.7827","79.9482"
"919","40.8217","77.2639"
"920","40.8607","77.1910"
"921","40.8997","78.7107"
"922","40.9387","79.0187"
"923","40.9777","78.2025"
"924","41.0167","79.2979"
"925","41.0557","77.1665"
"926","41.0947","77.6946"
"927","41.1337","77.7442"
"928","41.1727","78.7536"
"929","41.2117","77.2537"
"930","41.2507","76.1268"
"931","41.2897","77.1914"
"932","41.3287","78.4141"
"933","41.3677","79.7576"
"934","41.4067","78.1862"
"935","41.4457","78.2024"
"936","41.4847","83.7303"
"937","41.5237","87.2347"
"938","41.5627","94.3056"
"939","41.6017","101.9315"
"940","41.6407","107.3715"
"941","41.6797","110.3573"
"942","41.7187","106.0198"
"943","41.7577","100.9066"
"944","41.7967","96.1502"
"945","41.8357","89.5581"
"946","41.8747","84.1311"
"947","41.9137","81.4161"
"948","41.9527","80.8222"
"949","41.9917","78.9088"
"950","42.0307","79.6675"
"951","42.0697","78.0864"
"952","42.1087","77.4110"
"953","42.1477","77.7055"
"954","42.1867","77.2084"
"955","42.2257","78.1004"
"956","42.2647","78.9632"
"957","42.3037","79.3479"
"958","42.3427","78.3909"
"959","42.3817","77.4343"
"960","42.4207","76.4232"
"961","42.4597","75.4822"
"962","42.4987","77.0371"
"963","42.5377","78.4861"
"964","42.5767","77.6768"
"965","42.6157","77.3499"
"966","42.6547","77.0183"
"967","42.6937","76.6493"
"968","42.7327","79.1554"
"969","42.7717","82.7267"
"970","42.8107","87.3137"
"971","42.8497","90.6753"
"972","42.8887","93.9752"
"973","42.9277","95.0938"
"974","42.9667","97.3493"
"975","43.0057","95.7204"
"976","43.0447","88.7857"
"977","43.0837","86.0765"
"978","43.1227","81.8345"
"979","43.1617","78.8306"
"980","43.2007","78.0076"
"981","43.2397","78.4045"
"982","43.2787","79.7086"
"983","43.3177","80.8507"
"984","43.3567","78.4995"
"985","43.3957","76.6359"
"986","43.4347","78.2725"
"987","43.4737","78.5645"
"988","43.5127","78.2830"
"989","43.5517","79.9003"
"990","43.5907","82.0002"
"991","43.6297","82.4408"
"992","43.6687","85.3080"
"993","43.7077","90.2377"
"994","43.7467","96.4332"
"995","43.7857","107.0073"
"996","43.8247","115.3042"
"997","43.8637","123.4475"
"998","43.9027","120.5562"
"999","43.9417","112.4000"
"1000","43.9807","109.3719"
"1001","44.0197","102.9502"
"1002","44.0587","95.1818"
"1003","44.0977","90.8909"
"1004","44.1367","89.2855"
"1005","44.1757","87.7020"
"1006","44.2147","88.1171"
"1007","44.2537","87.8755"
"1008","44.2927","82.4569"
"1009","44.3317","82.4774"
"1010","44.3707","80.0984"
"1011","44.4097","78.5681"
"1012","44.4487","75.9024"
"1013","44.4877","74.8821"
"1014","44.5267","74.3890"
"1015","44.5657","76.1762"
"1016","44.6047","74.6752"
"1017","44.6437","75.1615"
"1018","44.6827","74.2156"
"1019","44.7217","74.2275"
"1020","44.7607","74.3692"
"1021","44.7997","71.5574"
"1022","44.8387","72.9189"
"1023","44.8777","74.1983"
"1024","44.9167","73.5185"
"1025","44.9557","72.8634"
"1026","44.9947","72.7325"
"1027","45.0337","73.3887"
"1028","45.0727","73.9043"
"1029","45.1117","74.4724"
"1030","45.1507","74.4945"
"1031","45.1897","73.9504"
"1032","45.2287","74.7152"
"1033","45.2677","76.2963"
"1034","45.3067","76.8337"
"1035","45.3457","79.9169"
"1036","45.3847","78.1645"
"1037","45.4237","78.3053"
"1038","45.4627","77.9966"
"1039","45.5017","78.4404"
"1040","45.5407","78.2474"
"1041","45.5797","78.1012"
"1042","45.6187","77.1943"
"1043","45.6577","77.8546"
"1044","45.6967","75.4324"
"1045","45.7357","73.9448"
"1046","45.7747","73.8416"
"1047","45.8137","75.4309"
"1048","45.8527","76.5998"
"1049","45.8917","77.8366"
"1050","45.9307","78.1310"
"1051","45.9697","76.0470"
"1052","46.0087","76.0132"
"1053","46.0477","75.2706"
"1054","46.0867","74.6917"
"1055","46.1257","75.3337"
"1056","46.1647","77.8760"
"1057","46.2037","79.5181"
"1058","46.2427","78.8848"
"1059","46.2817","78.1798"
"1060","46.3207","77.5912"
"1061","46.3597","76.6999"
"1062","46.3987","76.6370"
"1063","46.4377","76.2305"
"1064","46.4767","73.6368"
"1065","46.5157","73.2548"
"1066","46.5547","73.1114"
"1067","46.5937","71.6576"
"1068","46.6327","72.0379"
"1069","46.6717","72.3761"
"1070","46.7107","71.6075"
"1071","46.7497","71.0957"
"1072","46.7887","72.6488"
"1073","46.8277","74.0006"
"1074","46.8667","73.1381"
"1075","46.9057","72.9481"
"1076","46.9447","74.7308"
"1077","46.9837","73.0206"
"1078","47.0227","72.1525"
"1079","47.0617","72.6936"
"1080","47.1007","72.2393"
"1081","47.1397","72.8171"
"1082","47.1787","72.3418"
"1083","47.2177","73.8001"
"1084","47.2567","72.4723"
"1085","47.2957","71.6324"
"1086","47.3347","73.8945"
"1087","47.3737","72.6501"
"1088","47.4127","70.7047"
"1089","47.4517","69.0449"
"1090","47.4907","71.0226"
"1091","47.5297","70.2970"
"1092","47.5687","71.3299"
"1093","47.6077","70.1891"
"1094","47.6467","72.1967"
"1095","47.6857","70.8969"
"1096","47.7247","72.5891"
"1097","47.7637","74.2936"
"1098","47.8027","70.1093"
"1099","47.8417","70.9674"
"1100","47.8807","72.8309"
"1101","47.9197","71.8570"
"1102","47.9587","73.6584"
"1103","47.9977","70.9097"
"1104","48.0367","71.8107"
"1105","48.0757","74.4065"
"1106","48.1147","70.6183"
"1107","48.1537","73.0337"
"1108","48.1927","70.5932"
"1109","48.2317","70.9140"
"1110","48.2707","73.2559"
"1111","48.3097","71.4435"
"1112","48.3487","71.4790"
"1113","48.3877","68.5127"
"1114","48.4267","70.3546"
"1115","48.4657","68.8128"
"1116","48.5047","70.4700"
"1117","48.5437","72.6073"
"1118","48.5827","70.6553"
"1119","48.6217","70.2191"
"1120","48.6607","69.7287"
"1121","48.6997","71.1477"
"1122","48.7387","71.0986"
"1123","48.7777","69.8419"
"1124","48.8167","70.3483"
"1125","48.8557","69.5495"
"1126","48.8947","68.7071"
"1127","48.9337","68.4210"
"1128","48.9727","66.5227"
"1129","49.0117","70.8324"
"1130","49.0507","69.9382"
"1131","49.0897","69.9167"
"1132","49.1287","69.3708"
"1133","49.1677","68.7311"
"1134","49.2067","69.1311"
"1135","49.2457","68.5567"
"1136","49.2847","67.9535"
"1137","49.3237","69.9745"
"1138","49.3627","70.4172"
"1139","49.4017","71.8940"
"1140","49.4407","71.8057"
"1141","49.4797","70.1802"
"1142","49.5187","69.5923"
"1143","49.5577","69.0511"
"1144","49.5967","68.9471"
"1145","49.6357","69.0051"
"1146","49.6747","71.6158"
"1147","49.7137","69.0525"
"1148","49.7527","66.9493"
"1149","49.7917","68.6906"
"1150","49.8307","70.3675"
"1151","49.8697","70.9143"
"1152","49.9087","70.0446"
"1153","49.9477","70.8649"
"1154","49.9867","72.3824"
"1155","50.0257","70.5738"
"1156","50.0647","70.3461"
"1157","50.1037","71.2629"
"1158","50.1427","69.2796"
"1159","50.1817","69.9256"
"1160","50.2207","69.8928"
"1161","50.2597","69.1089"
"1162","50.2987","70.3857"
"1163","50.3377","69.6512"
"1164","50.3767","69.7245"
"1165","50.4157","71.1885"
"1166","50.4547","73.2026"
"1167","50.4937","73.7992"
"1168","50.5327","72.1926"
"1169","50.5717","72.1889"
"1170","50.6107","73.9276"
"1171","50.6497","78.2290"
"1172","50.6887","83.9984"
"1173","50.7277","90.1997"
"1174","50.7667","96.9745"
"1175","50.8057","101.1538"
"1176","50.8447","100.4130"
"1177","50.8837","98.3876"
"1178","50.9227","96.8327"
"1179","50.9617","94.8107"
"1180","51.0007","93.1220"
"1181","51.0397","91.5732"
"1182","51.0787","90.0165"
"1183","51.1177","90.1080"
"1184","51.1567","87.4566"
"1185","51.1957","84.6257"
"1186","51.2347","80.1529"
"1187","51.2737","77.7290"
"1188","51.3127","78.3528"
"1189","51.3517","74.5045"
"1190","51.3907","73.4451"
"1191","51.4297","73.0953"
"1192","51.4687","74.4119"
"1193","51.5077","72.4798"
"1194","51.5467","71.6750"
"1195","51.5857","69.8234"
"1196","51.6247","68.6437"
"1197","51.6637","67.7303"
"1198","51.7027","68.0667"
"1199","51.7417","68.5057"
"1200","51.7807","70.0792"
"1201","51.8197","68.8544"
"1202","51.8587","70.0418"
"1203","51.8977","69.0744"
"1204","51.9367","72.3236"
"1205","51.9757","73.6320"
"1206","52.0147","71.9416"
"1207","52.0537","77.5250"
"1208","52.0927","78.3983"
"1209","52.1317","82.1429"
"1210","52.1707","81.9451"
"1211","52.2097","78.5555"
"1212","52.2487","82.6803"
"1213","52.2877","77.2086"
"1214","52.3267","78.3224"
"1215","52.3657","76.7057"
"1216","52.4047","73.1969"
"1217","52.4437","73.5768"
"1218","52.4827","72.7927"
"1219","52.5217","74.6232"
"1220","52.5607","71.6652"
"1221","52.5997","70.4626"
"1222","52.6387","69.7174"
"1223","52.6777","73.1377"
"1224","52.7167","70.9819"
"1225","52.7557","71.7563"
"1226","52.7947","71.7297"
"1227","52.8337","72.5545"
"1228","52.8727","74.1468"
"1229","52.9117","74.3799"
"1230","52.9507","75.8187"
"1231","52.9897","75.1627"
"1232","53.0287","75.6865"
"1233","53.0677","77.5257"
"1234","53.1067","76.0093"
"1235","53.1457","77.0175"
"1236","53.1847","78.6072"
"1237","53.2237","79.0625"
"1238","53.2627","78.8995"
"1239","53.3017","76.7451"
"1240","53.3407","76.9026"
"1241","53.3797","74.7678"
"1242","53.4187","73.6448"
"1243","53.4577","72.8101"
"1244","53.4967","70.7129"
"1245","53.5357","69.6031"
"1246","53.5747","70.4474"
"1247","53.6137","71.7885"
"1248","53.6527","72.1831"
"1249","53.6917","71.4531"
"1250","53.7307","71.5908"
"1251","53.7697","72.6020"
"1252","53.8087","70.7215"
"1253","53.8477","68.7349"
"1254","53.8867","69.5903"
"1255","53.9257","71.8773"
"1256","53.9647","70.4369"
"1257","54.0037","69.1983"
"1258","54.0427","70.3271"
"1259","54.0817","70.0703"
"1260","54.1207","67.0537"
"1261","54.1597","66.4931"
"1262","54.1987","68.0739"
"1263","54.2377","69.0866"
"1264","54.2767","69.4561"
"1265","54.3157","69.3483"
"1266","54.3547","69.6158"
"1267","54.3937","69.3050"
"1268","54.4327","70.7364"
"1269","54.4717","70.8015"
"1270","54.5107","70.7520"
"1271","54.5497","70.2757"
"1272","54.5887","69.6544"
"1273","54.6277","70.5520"
"1274","54.6667","70.6501"
"1275","54.7057","70.3614"
"1276","54.7447","69.4493"
"1277","54.7837","70.0296"
"1278","54.8227","67.7170"
"1279","54.8617","69.4818"
"1280","54.9007","69.7847"
"1281","54.9397","68.6578"
"1282","54.9787","69.2727"
"1283","55.0177","69.4224"
"1284","55.0567","72.4750"
"1285","55.0957","72.6035"
"1286","55.1347","72.1029"
"1287","55.1737","72.1727"
"1288","55.2127","71.8006"
"1289","55.2517","72.1405"
"1290","55.2907","71.6520"
"1291","55.3297","73.7002"
"1292","55.3687","72.1831"
"1293","55.4077","70.9004"
"1294","55.4467","70.1411"
"1295","55.4857","69.0840"
"1296","55.5247","68.5244"
"1297","55.5637","68.2680"
"1298","55.6027","69.5899"
"1299","55.6417","72.1154"
"1300","55.6807","70.4708"
"1301","55.7197","69.8411"
"1302","55.7587","69.5203"
"1303","55.7977","68.2049"
"1304","55.8367","68.4689"
"1305","55.8757","68.4736"
"1306","55.9147","69.0611"
"1307","55.9537","67.7213"
"1308","55.9927","68.6173"
"1309","56.0317","69.3426"
"1310","56.0707","73.0040"
"1311","56.1097","68.5145"
"1312","56.1487","69.1308"
"1313","56.1877","71.9679"
"1314","56.2267","72.1006"
"1315","56.2657","75.9958"
"1316","56.3047","79.9424"
"1317","56.3437","78.3340"
"1318","56.3827","81.0290"
"1319","56.4217","79.8736"
"1320","56.4607","79.3996"
"1321","56.4997","78.9343"
"1322","56.5387","74.8685"
"1323","56.5777","75.0630"
"1324","56.6167","74.1751"
"1325","56.6557","73.8714"
"1326","56.6947","71.0671"
"1327","56.7337","71.7253"
"1328","56.7727","68.2548"
"1329","56.8117","70.8824"
"1330","56.8507","70.9974"
"1331","56.8897","71.3747"
"1332","56.9287","71.8799"
"1333","56.9677","74.4171"
"1334","57.0067","71.3668"
"1335","57.0457","71.6873"
"1336","57.0847","72.9995"
"1337","57.1237","73.6097"
"1338","57.1627","72.3051"
"1339","57.2017","72.3475"
"1340","57.2407","72.3816"
"1341","57.2797","71.4776"
"1342","57.3187","72.6546"
"1343","57.3577","71.5097"
"1344","57.3967","70.0276"
"1345","57.4357","71.1644"
"1346","57.4747","69.8718"
"1347","57.5137","68.0816"
"1348","57.5527","69.5008"
"1349","57.5917","68.9911"
"1350","57.6307","67.6103"
"1351","57.6697","67.8955"
"1352","57.7087","68.1162"
"1353","57.7477","68.7802"
"1354","57.7867","69.6806"
"1355","57.8257","69.4172"
"1356","57.8647","68.9652"
"1357","57.9037","68.1814"
"1358","57.9427","68.3811"
"1359","57.9817","69.3342"
"1360","58.0207","68.8019"
"1361","58.0597","67.8360"
"1362","58.0987","68.1248"
"1363","58.1377","68.9213"
"1364","58.1767","69.4933"
"1365","58.2157","69.2901"
"1366","58.2547","69.1507"
"1367","58.2937","69.9042"
"1368","58.3327","70.9709"
"1369","58.3717","72.0556"
"1370","58.4107","72.0718"
"1371","58.4497","72.7095"
"1372","58.4887","73.1232"
"1373","58.5277","72.0318"
"1374","58.5667","70.5980"
"1375","58.6057","68.4120"
"1376","58.6447","68.3283"
"1377","58.6837","70.2240"
"1378","58.7227","68.5818"
"1379","58.7617","69.7978"
"1380","58.8007","70.5272"
"1381","58.8397","71.1236"
"1382","58.8787","70.5003"
"1383","58.9177","71.5679"
"1384","58.9567","71.4914"
"1385","58.9957","74.3308"
"1386","59.0347","79.2044"
"1387","59.0737","82.6711"
"1388","59.1127","85.1821"
"1389","59.1517","84.5574"
"1390","59.1907","85.9518"
"1391","59.2297","85.4242"
"1392","59.2687","86.2291"
"1393","59.3077","84.7366"
"1394","59.3467","86.5069"
"1395","59.3857","86.5122"
"1396","59.4247","82.2993"
"1397","59.4637","80.1484"
"1398","59.5027","78.5038"
"1399","59.5417","75.8078"
"1400","59.5807","74.9690"
"1401","59.6197","71.4360"
"1402","59.6587","72.2972"
"1403","59.6977","69.4691"
"1404","59.7367","68.7535"
"1405","59.7757","67.6748"
"1406","59.8147","67.5024"
"1407","59.8537","66.5840"
"1408","59.8927","66.1943"
"1409","59.9317","66.3378"