File: mof-801_xrd/5L-5.csv
"No.","Pos. [°2θ]","Iobs [cps]"
"1","5.0197","149.8703"
"2","5.0587","152.9312"
"3","5.0977","147.7963"
"4","5.1367","148.7385"
"5","5.1757","149.0894"
"6","5.2147","146.9729"
"7","5.2537","141.5540"
"8","5.2927","139.1520"
"9","5.3317","141.1181"
"10","5.3707","137.8997"
"11","5.4097","135.7532"
"12","5.4487","135.4795"
"13","5.4877","136.2016"
"14","5.5267","133.8787"
"15","5.5657","136.8790"
"16","5.6047","132.4229"
"17","5.6437","133.4515"
"18","5.6827","130.8265"
"19","5.7217","131.9423"
"20","5.7607","130.3972"
"21","5.7997","128.8203"
"22","5.8387","132.0718"
"23","5.8777","129.2059"
"24","5.9167","126.2564"
"25","5.9557","126.1877"
"26","5.9947","125.7636"
"27","6.0337","125.0959"
"28","6.0727","127.3149"
"29","6.1117","127.5882"
"30","6.1507","125.7024"
"31","6.1897","125.0191"
"32","6.2287","122.5562"
"33","6.2677","123.6882"
"34","6.3067","124.6527"
"35","6.3457","125.7599"
"36","6.3847","124.1333"
"37","6.4237","123.7190"
"38","6.4627","123.9577"
"39","6.5017","124.7946"
"40","6.5407","122.1603"
"41","6.5797","122.5146"
"42","6.6187","123.3285"
"43","6.6577","123.6849"
"44","6.6967","122.0115"
"45","6.7357","120.8641"
"46","6.7747","121.8272"
"47","6.8137","122.7834"
"48","6.8527","123.1510"
"49","6.8917","123.6919"
"50","6.9307","126.0470"
"51","6.9697","125.2531"
"52","7.0087","122.7518"
"53","7.0477","123.4229"
"54","7.0867","123.0517"
"55","7.1257","122.8949"
"56","7.1647","125.7929"
"57","7.2037","126.0462"
"58","7.2427","124.7065"
"59","7.2817","125.3869"
"60","7.3207","125.1587"
"61","7.3597","125.2758"
"62","7.3987","125.7408"
"63","7.4377","125.9940"
"64","7.4767","125.2436"
"65","7.5157","126.7753"
"66","7.5547","127.7255"
"67","7.5937","128.4239"
"68","7.6327","128.0672"
"69","7.6717","129.7112"
"70","7.7107","130.6800"
"71","7.7497","131.8383"
"72","7.7887","132.3257"
"73","7.8277","134.0328"
"74","7.8667","135.4463"
"75","7.9057","138.4093"
"76","7.9447","141.1881"
"77","7.9837","144.4225"
"78","8.0227","144.8623"
"79","8.0617","149.7692"
"80","8.1007","155.3637"
"81","8.1397","164.7397"
"82","8.1787","176.1374"
"83","8.2177","182.1414"
"84","8.2567","197.2975"
"85","8.2957","209.5798"
"86","8.3347","230.0564"
"87","8.3737","253.6446"
"88","8.4127","286.3506"
"89","8.4517","319.9585"
"90","8.4907","364.7141"
"91","8.5297","405.1775"
"92","8.5687","415.9994"
"93","8.6077","381.1750"
"94","8.6467","333.0261"
"95","8.6857","275.1948"
"96","8.7247","237.9355"
"97","8.7637","215.7629"
"98","8.8027","206.1645"
"99","8.8417","198.1068"
"100","8.8807","193.5269"
"101","8.9197","192.3750"
"102","8.9587","188.4513"
"103","8.9977","185.8805"
"104","9.0367","183.7184"
"105","9.0757","184.6949"
"106","9.1147","181.2297"
"107","9.1537","178.7552"
"108","9.1927","179.5825"
"109","9.2317","180.8973"
"110","9.2707","177.8113"
"111","9.3097","175.5682"
"112","9.3487","172.7978"
"113","9.3877","171.8437"
"114","9.4267","177.1396"
"115","9.4657","171.2112"
"116","9.5047","174.9451"
"117","9.5437","174.6666"
"118","9.5827","176.3938"
"119","9.6217","181.9224"
"120","9.6607","185.4336"
"121","9.6997","196.6538"
"122","9.7387","205.5560"
"123","9.7777","223.2610"
"124","9.8167","242.3873"
"125","9.8557","253.8636"
"126","9.8947","253.6629"
"127","9.9337","239.7951"
"128","9.9727","215.9528"
"129","10.0117","190.0403"
"130","10.0507","171.9004"
"131","10.0897","159.4716"
"132","10.1287","153.2081"
"133","10.1677","148.6081"
"134","10.2067","143.7651"
"135","10.2457","142.0819"
"136","10.2847","139.5604"
"137","10.3237","139.1833"
"138","10.3627","137.0165"
"139","10.4017","133.9885"
"140","10.4407","133.7155"
"141","10.4797","134.8742"
"142","10.5187","134.2445"
"143","10.5577","133.9899"
"144","10.5967","133.8229"
"145","10.6357","133.2445"
"146","10.6747","130.3942"
"147","10.7137","130.4878"
"148","10.7527","131.2304"
"149","10.7917","132.2203"
"150","10.8307","132.0438"
"151","10.8697","128.1155"
"152","10.9087","126.1860"
"153","10.9477","127.5461"
"154","10.9867","126.3173"
"155","11.0257","123.9126"
"156","11.0647","124.3700"
"157","11.1037","124.3882"
"158","11.1427","121.8840"
"159","11.1817","120.0469"
"160","11.2207","121.9290"
"161","11.2597","122.0628"
"162","11.2987","122.0990"
"163","11.3377","123.5948"
"164","11.3767","122.8566"
"165","11.4157","122.8366"
"166","11.4547","123.1768"
"167","11.4937","121.6981"
"168","11.5327","120.3687"
"169","11.5717","119.7638"
"170","11.6107","119.2176"
"171","11.6497","119.1710"
"172","11.6887","118.2898"
"173","11.7277","118.5370"
"174","11.7667","118.3612"
"175","11.8057","118.3788"
"176","11.8447","117.8780"
"177","11.8837","116.9317"
"178","11.9227","116.4784"
"179","11.9617","114.7449"
"180","12.0007","115.4029"
"181","12.0397","117.6004"
"182","12.0787","115.1974"
"183","12.1177","113.5286"
"184","12.1567","114.6002"
"185","12.1957","115.7102"
"186","12.2347","115.5736"
"187","12.2737","114.6753"
"188","12.3127","112.3111"
"189","12.3517","110.8984"
"190","12.3907","113.0484"
"191","12.4297","113.5054"
"192","12.4687","114.2621"
"193","12.5077","113.4190"
"194","12.5467","113.8405"
"195","12.5857","111.4415"
"196","12.6247","110.8304"
"197","12.6637","113.3417"
"198","12.7027","113.0741"
"199","12.7417","111.1100"
"200","12.7807","110.0258"
"201","12.8197","112.9310"
"202","12.8587","111.2342"
"203","12.8977","110.9877"
"204","12.9367","111.5593"
"205","12.9757","111.9523"
"206","13.0147","111.2002"
"207","13.0537","113.1173"
"208","13.0927","112.6964"
"209","13.1317","109.5011"
"210","13.1707","108.9777"
"211","13.2097","109.3905"
"212","13.2487","110.8410"
"213","13.2877","108.7731"
"214","13.3267","108.7382"
"215","13.3657","111.5676"
"216","13.4047","109.2823"
"217","13.4437","113.0479"
"218","13.4827","109.3006"
"219","13.5217","109.9034"
"220","13.5607","109.7656"
"221","13.5997","110.5780"
"222","13.6387","110.1427"
"223","13.6777","109.5109"
"224","13.7167","110.2384"
"225","13.7557","112.8391"
"226","13.7947","112.2122"
"227","13.8337","111.8166"
"228","13.8727","114.5158"
"229","13.9117","114.0646"
"230","13.9507","113.4141"
"231","13.9897","116.0034"
"232","14.0287","114.7538"
"233","14.0677","115.3582"
"234","14.1067","113.9441"
"235","14.1457","112.7741"
"236","14.1847","107.8142"
"237","14.2237","106.4979"
"238","14.2627","109.2446"
"239","14.3017","109.1281"
"240","14.3407","107.4018"
"241","14.3797","108.5233"
"242","14.4187","107.1253"
"243","14.4577","106.4325"
"244","14.4967","106.1804"
"245","14.5357","105.6760"
"246","14.5747","107.5436"
"247","14.6137","106.9395"
"248","14.6527","105.7832"
"249","14.6917","108.2142"
"250","14.7307","107.9794"
"251","14.7697","107.0566"
"252","14.8087","107.2717"
"253","14.8477","107.2513"
"254","14.8867","107.5479"
"255","14.9257","105.4410"
"256","14.9647","104.7707"
"257","15.0037","106.1604"
"258","15.0427","105.2361"
"259","15.0817","106.1058"
"260","15.1207","106.7624"
"261","15.1597","103.6639"
"262","15.1987","104.3173"
"263","15.2377","105.5948"
"264","15.2767","104.0870"
"265","15.3157","103.9536"
"266","15.3547","103.3730"
"267","15.3937","104.6265"
"268","15.4327","104.5555"
"269","15.4717","104.9778"
"270","15.5107","104.6796"
"271","15.5497","102.2969"
"272","15.5887","102.1170"
"273","15.6277","103.3354"
"274","15.6667","103.7076"
"275","15.7057","103.3406"
"276","15.7447","103.8368"
"277","15.7837","102.9055"
"278","15.8227","101.4755"
"279","15.8617","101.0008"
"280","15.9007","103.4692"
"281","15.9397","102.4997"
"282","15.9787","103.5082"
"283","16.0177","103.3037"
"284","16.0567","102.2144"
"285","16.0957","101.4699"
"286","16.1347","105.6573"
"287","16.1737","104.2486"
"288","16.2127","102.4930"
"289","16.2517","102.0292"
"290","16.2907","101.4621"
"291","16.3297","101.0095"
"292","16.3687","102.9981"
"293","16.4077","105.2695"
"294","16.4467","102.5415"
"295","16.4857","104.9345"
"296","16.5247","102.1650"
"297","16.5637","100.9588"
"298","16.6027","99.5812"
"299","16.6417","103.9746"
"300","16.6807","100.3623"
"301","16.7197","101.5313"
"302","16.7587","100.8980"
"303","16.7977","99.0404"
"304","16.8367","100.5401"
"305","16.8757","98.3048"
"306","16.9147","101.5808"
"307","16.9537","99.9705"
"308","16.9927","99.2337"
"309","17.0317","98.4961"
"310","17.0707","101.5162"
"311","17.1097","102.0202"
"312","17.1487","100.7539"
"313","17.1877","99.9762"
"314","17.2267","98.6077"
"315","17.2657","100.8765"
"316","17.3047","101.4471"
"317","17.3437","100.9992"
"318","17.3827","100.1963"
"319","17.4217","100.2479"
"320","17.4607","99.6392"
"321","17.4997","98.8791"
"322","17.5387","97.7301"
"323","17.5777","97.4329"
"324","17.6167","99.0170"
"325","17.6557","97.7676"
"326","17.6947","98.2138"
"327","17.7337","97.5221"
"328","17.7727","98.7817"
"329","17.8117","96.8092"
"330","17.8507","96.3001"
"331","17.8897","98.9202"
"332","17.9287","100.5037"
"333","17.9677","97.4769"
"334","18.0067","97.7700"
"335","18.0457","97.1720"
"336","18.0847","97.6742"
"337","18.1237","96.3670"
"338","18.1627","98.6044"
"339","18.2017","98.3820"
"340","18.2407","98.1863"
"341","18.2797","98.4017"
"342","18.3187","98.9886"
"343","18.3577","97.8266"
"344","18.3967","97.5040"
"345","18.4357","98.7282"
"346","18.4747","99.1469"
"347","18.5137","96.8065"
"348","18.5527","97.1176"
"349","18.5917","97.9728"
"350","18.6307","98.1027"
"351","18.6697","97.9997"
"352","18.7087","98.1824"
"353","18.7477","97.7725"
"354","18.7867","97.4538"
"355","18.8257","99.1187"
"356","18.8647","98.8878"
"357","18.9037","97.5727"
"358","18.9427","97.6619"
"359","18.9817","97.3637"
"360","19.0207","98.2430"
"361","19.0597","100.0671"
"362","19.0987","97.9296"
"363","19.1377","97.0245"
"364","19.1767","98.9289"
"365","19.2157","98.7384"
"366","19.2547","97.8475"
"367","19.2937","96.3204"
"368","19.3327","97.4288"
"369","19.3717","96.8565"
"370","19.4107","97.4468"
"371","19.4497","99.1315"
"372","19.4887","99.6092"
"373","19.5277","98.0013"
"374","19.5667","97.5612"
"375","19.6057","98.1849"
"376","19.6447","98.1782"
"377","19.6837","98.3129"
"378","19.7227","100.4186"
"379","19.7617","103.8059"
"380","19.8007","105.5705"
"381","19.8397","104.9200"
"382","19.8787","103.8535"
"383","19.9177","103.0735"
"384","19.9567","100.1348"
"385","19.9957","99.7103"
"386","20.0347","97.4704"
"387","20.0737","100.0774"
"388","20.1127","98.3802"
"389","20.1517","96.9158"
"390","20.1907","97.7693"
"391","20.2297","98.6564"
"392","20.2687","97.9726"
"393","20.3077","99.1238"
"394","20.3467","97.7680"
"395","20.3857","98.6129"
"396","20.4247","97.7171"
"397","20.4637","95.6014"
"398","20.5027","97.2300"
"399","20.5417","95.1825"
"400","20.5807","98.7692"
"401","20.6197","98.3931"
"402","20.6587","99.0103"
"403","20.6977","96.0045"
"404","20.7367","101.3538"
"405","20.7757","97.4095"
"406","20.8147","97.4567"
"407","20.8537","96.4503"
"408","20.8927","98.0569"
"409","20.9317","96.9571"
"410","20.9707","96.1359"
"411","21.0097","97.9063"
"412","21.0487","98.5366"
"413","21.0877","98.2759"
"414","21.1267","100.0810"
"415","21.1657","100.6133"
"416","21.2047","98.5667"
"417","21.2437","102.6141"
"418","21.2827","101.2610"
"419","21.3217","102.7483"
"420","21.3607","103.1129"
"421","21.3997","105.2650"
"422","21.4387","105.9005"
"423","21.4777","112.1171"
"424","21.5167","116.6540"
"425","21.5557","124.6582"
"426","21.5947","127.5882"
"427","21.6337","133.4748"
"428","21.6727","133.2333"
"429","21.7117","129.3508"
"430","21.7507","121.4533"
"431","21.7897","113.2406"
"432","21.8287","108.4540"
"433","21.8677","106.4021"
"434","21.9067","104.8765"
"435","21.9457","104.4811"
"436","21.9847","104.1156"
"437","22.0237","103.1909"
"438","22.0627","102.1296"
"439","22.1017","103.6875"
"440","22.1407","105.0872"
"441","22.1797","105.2751"
"442","22.2187","106.3868"
"443","22.2577","106.6954"
"444","22.2967","106.4633"
"445","22.3357","102.5653"
"446","22.3747","102.2113"
"447","22.4137","103.5270"
"448","22.4527","102.8317"
"449","22.4917","101.4204"
"450","22.5307","100.5367"
"451","22.5697","103.4277"
"452","22.6087","105.6603"
"453","22.6477","104.2086"
"454","22.6867","104.0349"
"455","22.7257","106.0483"
"456","22.7647","106.1416"
"457","22.8037","103.7601"
"458","22.8427","102.3729"
"459","22.8817","102.4362"
"460","22.9207","102.5050"
"461","22.9597","103.2406"
"462","22.9987","103.5444"
"463","23.0377","101.8380"
"464","23.0767","101.9443"
"465","23.1157","103.6123"
"466","23.1547","103.2146"
"467","23.1937","102.2860"
"468","23.2327","100.4728"
"469","23.2717","101.2370"
"470","23.3107","101.6192"
"471","23.3497","102.1190"
"472","23.3887","103.6157"
"473","23.4277","103.9018"
"474","23.4667","102.8611"
"475","23.5057","100.8398"
"476","23.5447","99.7135"
"477","23.5837","101.0551"
"478","23.6227","101.7702"
"479","23.6617","103.3545"
"480","23.7007","99.9575"
"481","23.7397","101.5894"
"482","23.7787","102.3168"
"483","23.8177","104.9657"
"484","23.8567","103.6603"
"485","23.8957","102.6888"
"486","23.9347","104.6060"
"487","23.9737","103.4404"
"488","24.0127","102.9900"
"489","24.0517","100.8144"
"490","24.0907","107.3936"
"491","24.1297","109.4415"
"492","24.1687","107.9571"
"493","24.2077","111.1583"
"494","24.2467","109.4689"
"495","24.2857","115.9992"
"496","24.3247","120.0083"
"497","24.3637","122.7127"
"498","24.4027","119.6762"
"499","24.4417","117.3437"
"500","24.4807","112.3226"
"501","24.5197","109.1131"
"502","24.5587","105.8986"
"503","24.5977","106.4011"
"504","24.6367","104.2471"
"505","24.6757","102.4188"
"506","24.7147","107.4051"
"507","24.7537","104.4519"
"508","24.7927","101.3310"
"509","24.8317","104.8380"
"510","24.8707","102.0545"
"511","24.9097","103.7897"
"512","24.9487","103.7376"
"513","24.9877","103.9535"
"514","25.0267","102.2743"
"515","25.0657","103.3198"
"516","25.1047","103.2146"
"517","25.1437","101.9615"
"518","25.1827","102.5892"
"519","25.2217","104.1536"
"520","25.2607","103.2592"
"521","25.2997","105.5367"
"522","25.3387","101.5955"
"523","25.3777","102.5680"
"524","25.4167","106.4929"
"525","25.4557","105.1209"
"526","25.4947","105.4776"
"527","25.5337","104.5660"
"528","25.5727","107.1386"
"529","25.6117","106.1354"
"530","25.6507","107.1245"
"531","25.6897","112.2290"
"532","25.7287","116.1811"
"533","25.7677","122.8826"
"534","25.8067","131.3816"
"535","25.8457","137.5387"
"536","25.8847","137.4449"
"537","25.9237","133.2502"
"538","25.9627","126.4470"
"539","26.0017","119.9584"
"540","26.0407","113.1222"
"541","26.0797","109.2455"
"542","26.1187","104.4520"
"543","26.1577","101.8529"
"544","26.1967","101.5213"
"545","26.2357","100.9007"
"546","26.2747","100.2756"
"547","26.3137","100.7010"
"548","26.3527","102.0900"
"549","26.3917","102.3355"
"550","26.4307","101.4540"
"551","26.4697","101.5564"
"552","26.5087","100.0233"
"553","26.5477","98.2231"
"554","26.5867","99.3026"
"555","26.6257","99.9141"
"556","26.6647","101.1794"
"557","26.7037","101.3626"
"558","26.7427","99.3728"
"559","26.7817","98.8925"
"560","26.8207","97.9129"
"561","26.8597","98.2947"
"562","26.8987","99.9689"
"563","26.9377","100.3908"
"564","26.9767","101.0850"
"565","27.0157","100.1828"
"566","27.0547","100.8063"
"567","27.0937","102.2735"
"568","27.1327","98.4198"
"569","27.1717","97.5172"
"570","27.2107","97.8697"
"571","27.2497","97.8410"
"572","27.2887","98.8416"
"573","27.3277","99.1665"
"574","27.3667","100.3779"
"575","27.4057","101.1428"
"576","27.4447","99.5124"
"577","27.4837","100.2451"
"578","27.5227","101.9883"
"579","27.5617","100.5397"
"580","27.6007","97.7909"
"581","27.6397","98.5344"
"582","27.6787","95.9532"
"583","27.7177","97.1368"
"584","27.7567","98.5636"
"585","27.7957","96.4212"
"586","27.8347","97.8127"
"587","27.8737","98.2660"
"588","27.9127","98.2703"
"589","27.9517","98.3306"
"590","27.9907","100.3125"
"591","28.0297","98.8847"
"592","28.0687","97.7063"
"593","28.1077","99.6941"
"594","28.1467","100.1064"
"595","28.1857","102.4635"
"596","28.2247","102.8350"
"597","28.2637","102.6125"
"598","28.3027","101.9566"
"599","28.3417","100.7329"
"600","28.3807","98.3258"
"601","28.4197","98.0744"
"602","28.4587","101.2050"
"603","28.4977","97.7539"
"604","28.5367","99.4053"
"605","28.5757","96.7934"
"606","28.6147","96.6701"
"607","28.6537","98.4312"
"608","28.6927","99.7518"
"609","28.7317","100.3240"
"610","28.7707","98.6341"
"611","28.8097","100.7400"
"612","28.8487","97.2041"
"613","28.8877","97.8071"
"614","28.9267","102.0050"
"615","28.9657","99.8520"
"616","29.0047","100.8994"
"617","29.0437","100.1083"
"618","29.0827","98.3865"
"619","29.1217","98.6320"
"620","29.1607","99.3620"
"621","29.1997","98.3094"
"622","29.2387","98.8842"
"623","29.2777","100.6680"
"624","29.3167","101.1931"
"625","29.3557","101.5869"
"626","29.3947","101.8194"
"627","29.4337","104.3934"
"628","29.4727","110.4053"
"629","29.5117","109.6711"
"630","29.5507","110.3804"
"631","29.5897","109.3598"
"632","29.6287","106.4320"
"633","29.6677","107.5681"
"634","29.7067","106.0865"
"635","29.7457","109.0153"
"636","29.7847","112.2694"
"637","29.8237","119.4795"
"638","29.8627","127.3051"
"639","29.9017","136.8160"
"640","29.9407","145.0894"
"641","29.9797","147.1347"
"642","30.0187","142.0650"
"643","30.0577","131.7101"
"644","30.0967","118.9873"
"645","30.1357","111.3254"
"646","30.1747","106.0226"
"647","30.2137","101.7263"
"648","30.2527","98.7036"
"649","30.2917","97.3991"
"650","30.3307","95.8428"
"651","30.3697","96.1421"
"652","30.4087","96.9283"
"653","30.4477","95.2667"
"654","30.4867","95.4251"
"655","30.5257","95.3564"
"656","30.5647","94.3255"
"657","30.6037","93.7071"
"658","30.6427","93.0424"
"659","30.6817","93.9488"
"660","30.7207","93.3541"
"661","30.7597","94.0330"
"662","30.7987","95.9499"
"663","30.8377","94.8382"
"664","30.8767","94.5268"
"665","30.9157","94.9399"
"666","30.9547","94.8172"
"667","30.9937","91.8776"
"668","31.0327","90.7092"
"669","31.0717","92.2366"
"670","31.1107","93.8151"
"671","31.1497","92.7479"
"672","31.1887","92.6286"
"673","31.2277","92.0218"
"674","31.2667","91.7051"
"675","31.3057","91.2761"
"676","31.3447","91.4145"
"677","31.3837","89.7828"
"678","31.4227","91.0513"
"679","31.4617","90.2188"
"680","31.5007","89.6436"
"681","31.5397","91.9535"
"682","31.5787","93.1345"
"683","31.6177","93.0123"
"684","31.6567","91.5907"
"685","31.6957","91.6564"
"686","31.7347","92.3579"
"687","31.7737","92.0511"
"688","31.8127","91.2789"
"689","31.8517","92.8632"
"690","31.8907","95.1172"
"691","31.9297","93.4741"
"692","31.9687","94.2057"
"693","32.0077","90.5368"
"694","32.0467","91.8827"
"695","32.0857","95.0024"
"696","32.1247","92.7658"
"697","32.1637","93.4673"
"698","32.2027","93.2548"
"699","32.2417","89.6485"
"700","32.2807","91.2219"
"701","32.3197","89.2766"
"702","32.3587","89.9319"
"703","32.3977","90.9136"
"704","32.4367","90.1067"
"705","32.4757","90.7362"
"706","32.5147","94.9399"
"707","32.5537","93.3581"
"708","32.5927","93.3499"
"709","32.6317","92.7835"
"710","32.6707","94.5912"
"711","32.7097","97.4120"
"712","32.7487","100.9736"
"713","32.7877","104.6074"
"714","32.8267","104.1728"
"715","32.8657","101.6112"
"716","32.9047","100.2148"
"717","32.9437","95.0385"
"718","32.9827","91.3805"
"719","33.0217","91.7478"
"720","33.0607","90.3109"
"721","33.0997","93.0021"
"722","33.1387","89.7209"
"723","33.1777","90.6129"
"724","33.2167","90.2366"
"725","33.2557","88.7713"
"726","33.2947","89.0093"
"727","33.3337","91.3357"
"728","33.3727","91.5874"
"729","33.4117","88.6512"
"730","33.4507","90.9008"
"731","33.4897","90.0610"
"732","33.5287","87.8016"
"733","33.5677","86.8008"
"734","33.6067","88.3676"
"735","33.6457","88.8051"
"736","33.6847","87.3144"
"737","33.7237","88.7129"
"738","33.7627","89.5023"
"739","33.8017","88.8936"
"740","33.8407","89.1039"
"741","33.8797","88.3494"
"742","33.9187","87.1991"
"743","33.9577","87.5700"
"744","33.9967","87.3898"
"745","34.0357","86.9909"
"746","34.0747","86.4673"
"747","34.1137","85.9639"
"748","34.1527","86.5953"
"749","34.1917","86.2015"
"750","34.2307","86.5415"
"751","34.2697","89.7678"
"752","34.3087","89.2303"
"753","34.3477","88.7404"
"754","34.3867","88.8543"
"755","34.4257","88.0052"
"756","34.4647","87.9188"
"757","34.5037","87.3645"
"758","34.5427","89.2649"
"759","34.5817","93.9984"
"760","34.6207","98.8898"
"761","34.6597","102.9229"
"762","34.6987","105.6917"
"763","34.7377","106.6115"
"764","34.7767","106.4666"
"765","34.8157","103.6807"
"766","34.8547","98.0256"
"767","34.8937","95.7653"
"768","34.9327","94.2569"
"769","34.9717","92.4351"
"770","35.0107","91.5300"
"771","35.0497","88.1291"
"772","35.0887","87.0358"
"773","35.1277","88.7026"
"774","35.1667","88.4491"
"775","35.2057","88.3032"
"776","35.2447","89.2495"
"777","35.2837","88.7286"
"778","35.3227","87.7926"
"779","35.3617","88.5582"
"780","35.4007","90.2330"
"781","35.4397","91.5362"
"782","35.4787","87.8893"
"783","35.5177","89.1682"
"784","35.5567","89.1288"
"785","35.5957","92.6720"
"786","35.6347","91.0460"
"787","35.6737","90.3234"
"788","35.7127","92.3955"
"789","35.7517","92.8769"
"790","35.7907","95.2362"
"791","35.8297","96.1872"
"792","35.8687","95.9204"
"793","35.9077","92.4576"
"794","35.9467","90.4712"
"795","35.9857","89.7165"
"796","36.0247","88.9024"
"797","36.0637","88.0694"
"798","36.1027","84.4369"
"799","36.1417","87.2469"
"800","36.1807","85.7379"
"801","36.2197","87.5123"
"802","36.2587","85.5059"
"803","36.2977","85.0686"
"804","36.3367","84.1504"
"805","36.3757","86.4312"
"806","36.4147","87.7574"
"807","36.4537","82.0041"
"808","36.4927","83.4421"
"809","36.5317","84.1256"
"810","36.5707","85.1669"
"811","36.6097","85.4953"
"812","36.6487","85.0915"
"813","36.6877","83.6230"
"814","36.7267","87.8923"
"815","36.7657","82.6678"
"816","36.8047","83.9322"
"817","36.8437","83.6272"
"818","36.8827","82.9283"
"819","36.9217","85.7109"
"820","36.9607","82.9154"
"821","36.9997","84.7148"
"822","37.0387","84.6105"
"823","37.0777","84.3740"
"824","37.1167","84.2756"
"825","37.1557","83.5950"
"826","37.1947","84.2297"
"827","37.2337","81.7706"
"828","37.2727","82.7109"
"829","37.3117","85.4479"
"830","37.3507","84.3202"
"831","37.3897","82.2984"
"832","37.4287","84.8560"
"833","37.4677","86.1787"
"834","37.5067","85.4873"
"835","37.5457","85.1805"
"836","37.5847","86.5395"
"837","37.6237","85.9281"
"838","37.6627","85.8051"
"839","37.7017","84.5417"
"840","37.7407","84.9531"
"841","37.7797","85.1616"
"842","37.8187","84.5601"
"843","37.8577","83.3063"
"844","37.8967","84.2768"
"845","37.9357","85.0502"
"846","37.9747","85.2691"
"847","38.0137","84.1374"
"848","38.0527","82.0380"
"849","38.0917","82.9295"
"850","38.1307","84.4688"
"851","38.1697","85.3201"
"852","38.2087","84.6318"
"853","38.2477","83.4410"
"854","38.2867","85.0827"
"855","38.3257","84.4068"
"856","38.3647","84.1425"
"857","38.4037","85.1664"
"858","38.4427","85.3147"
"859","38.4817","88.5624"
"860","38.5207","92.1002"
"861","38.5597","96.2615"
"862","38.5987","99.8426"
"863","38.6377","101.3677"
"864","38.6767","101.2585"
"865","38.7157","98.3428"
"866","38.7547","96.3513"
"867","38.7937","91.9088"
"868","38.8327","88.7253"
"869","38.8717","88.6073"
"870","38.9107","86.2017"
"871","38.9497","84.4882"
"872","38.9887","85.9692"
"873","39.0277","85.5096"
"874","39.0667","84.6345"
"875","39.1057","83.5786"
"876","39.1447","82.5326"
"877","39.1837","85.0831"
"878","39.2227","87.0625"
"879","39.2617","86.8540"
"880","39.3007","84.1204"
"881","39.3397","84.3918"
"882","39.3787","83.3073"
"883","39.4177","82.9488"
"884","39.4567","85.7473"
"885","39.4957","84.6696"
"886","39.5347","84.0551"
"887","39.5737","85.2803"
"888","39.6127","85.9044"
"889","39.6517","83.5164"
"890","39.6907","84.0454"
"891","39.7297","82.9575"
"892","39.7687","83.6637"
"893","39.8077","82.5146"
"894","39.8467","83.0764"
"895","39.8857","85.2505"
"896","39.9247","85.2217"
"897","39.9637","84.2584"
"898","40.0027","83.6661"
"899","40.0417","84.3300"
"900","40.0807","81.3068"
"901","40.1197","84.8281"
"902","40.1587","88.3178"
"903","40.1977","85.4641"
"904","40.2367","83.9235"
"905","40.2757","85.3646"
"906","40.3147","88.6800"
"907","40.3537","83.6234"
"908","40.3927","84.0763"
"909","40.4317","86.5210"
"910","40.4707","89.0063"
"911","40.5097","86.7184"
"912","40.5487","86.3490"
"913","40.5877","84.8965"
"914","40.6267","86.7550"
"915","40.6657","85.5433"
"916","40.7047","83.8009"
"917","40.7437","85.3239"
"918","40.7827","86.2528"
"919","40.8217","85.2086"
"920","40.8607","84.5773"
"921","40.8997","86.9701"
"922","40.9387","85.9383"
"923","40.9777","84.7954"
"924","41.0167","85.9278"
"925","41.0557","86.2743"
"926","41.0947","86.6363"
"927","41.1337","83.3744"
"928","41.1727","83.1178"
"929","41.2117","86.1543"
"930","41.2507","86.8366"
"931","41.2897","87.0864"
"932","41.3287","88.0051"
"933","41.3677","84.3008"
"934","41.4067","85.4920"
"935","41.4457","87.1327"
"936","41.4847","89.8899"
"937","41.5237","92.7914"
"938","41.5627","96.4073"
"939","41.6017","99.5875"
"940","41.6407","97.3066"
"941","41.6797","96.3286"
"942","41.7187","94.6259"
"943","41.7577","91.7158"
"944","41.7967","91.0945"
"945","41.8357","88.9510"
"946","41.8747","87.5946"
"947","41.9137","86.8004"
"948","41.9527","84.8675"
"949","41.9917","85.2726"
"950","42.0307","85.4042"
"951","42.0697","84.2475"
"952","42.1087","85.5488"
"953","42.1477","84.4945"
"954","42.1867","84.4909"
"955","42.2257","85.0334"
"956","42.2647","84.3678"
"957","42.3037","85.6497"
"958","42.3427","84.8481"
"959","42.3817","84.1772"
"960","42.4207","84.8865"
"961","42.4597","84.7451"
"962","42.4987","84.6164"
"963","42.5377","83.2862"
"964","42.5767","84.0260"
"965","42.6157","86.2637"
"966","42.6547","87.3099"
"967","42.6937","87.4788"
"968","42.7327","86.3214"
"969","42.7717","87.8242"
"970","42.8107","90.2907"
"971","42.8497","94.0887"
"972","42.8887","94.7814"
"973","42.9277","91.1962"
"974","42.9667","92.8061"
"975","43.0057","91.1639"
"976","43.0447","88.6367"
"977","43.0837","87.6461"
"978","43.1227","87.5038"
"979","43.1617","87.4172"
"980","43.2007","86.1838"
"981","43.2397","83.6933"
"982","43.2787","85.6524"
"983","43.3177","86.2331"
"984","43.3567","89.0006"
"985","43.3957","86.2232"
"986","43.4347","85.8624"
"987","43.4737","86.0112"
"988","43.5127","90.4524"
"989","43.5517","89.7943"
"990","43.5907","89.4703"
"991","43.6297","89.8850"
"992","43.6687","94.7757"
"993","43.7077","97.5897"
"994","43.7467","101.0390"
"995","43.7857","103.2045"
"996","43.8247","102.2582"
"997","43.8637","103.5749"
"998","43.9027","101.0111"
"999","43.9417","98.1344"
"1000","43.9807","97.5720"
"1001","44.0197","90.7165"
"1002","44.0587","92.7166"
"1003","44.0977","92.8568"
"1004","44.1367","92.5608"
"1005","44.1757","85.1822"
"1006","44.2147","86.5160"
"1007","44.2537","89.7935"
"1008","44.2927","87.0902"
"1009","44.3317","85.3851"
"1010","44.3707","85.2387"
"1011","44.4097","82.0901"
"1012","44.4487","83.0861"
"1013","44.4877","87.3177"
"1014","44.5267","85.9632"
"1015","44.5657","84.4777"
"1016","44.6047","84.1743"
"1017","44.6437","82.7662"
"1018","44.6827","83.8506"
"1019","44.7217","81.6767"
"1020","44.7607","83.6148"
"1021","44.7997","85.9135"
"1022","44.8387","82.1870"
"1023","44.8777","80.6223"
"1024","44.9167","81.4519"
"1025","44.9557","82.1145"
"1026","44.9947","82.9996"
"1027","45.0337","80.5768"
"1028","45.0727","80.8989"
"1029","45.1117","81.8383"
"1030","45.1507","81.6603"
"1031","45.1897","81.7101"
"1032","45.2287","82.0229"
"1033","45.2677","83.3028"
"1034","45.3067","83.5875"
"1035","45.3457","82.3889"
"1036","45.3847","84.5105"
"1037","45.4237","84.9213"
"1038","45.4627","84.1138"
"1039","45.5017","83.6495"
"1040","45.5407","81.7218"
"1041","45.5797","82.2708"
"1042","45.6187","82.2310"
"1043","45.6577","81.9376"
"1044","45.6967","80.6753"
"1045","45.7357","78.9366"
"1046","45.7747","79.6712"
"1047","45.8137","82.2231"
"1048","45.8527","82.2164"
"1049","45.8917","82.7335"
"1050","45.9307","81.7682"
"1051","45.9697","81.5494"
"1052","46.0087","83.4799"
"1053","46.0477","82.4631"
"1054","46.0867","82.4971"
"1055","46.1257","82.6637"
"1056","46.1647","84.4777"
"1057","46.2037","84.4714"
"1058","46.2427","81.6005"
"1059","46.2817","81.8798"
"1060","46.3207","82.4822"
"1061","46.3597","81.8859"
"1062","46.3987","81.6833"
"1063","46.4377","80.8810"
"1064","46.4767","79.7840"
"1065","46.5157","78.8292"
"1066","46.5547","79.8575"
"1067","46.5937","82.3372"
"1068","46.6327","80.5747"
"1069","46.6717","78.8928"
"1070","46.7107","78.6787"
"1071","46.7497","78.0835"
"1072","46.7887","78.0966"
"1073","46.8277","78.2219"
"1074","46.8667","78.4523"
"1075","46.9057","78.8372"
"1076","46.9447","79.0815"
"1077","46.9837","79.5081"
"1078","47.0227","80.6698"
"1079","47.0617","80.4590"
"1080","47.1007","79.3593"
"1081","47.1397","78.6665"
"1082","47.1787","79.7588"
"1083","47.2177","78.9324"
"1084","47.2567","75.0797"
"1085","47.2957","77.3147"
"1086","47.3347","78.6434"
"1087","47.3737","77.2142"
"1088","47.4127","75.8907"
"1089","47.4517","79.5909"
"1090","47.4907","78.1452"
"1091","47.5297","77.3735"
"1092","47.5687","79.4057"
"1093","47.6077","78.9705"
"1094","47.6467","79.8454"
"1095","47.6857","75.0789"
"1096","47.7247","76.2712"
"1097","47.7637","76.5952"
"1098","47.8027","77.2063"
"1099","47.8417","77.9301"
"1100","47.8807","77.4009"
"1101","47.9197","77.7630"
"1102","47.9587","78.8413"
"1103","47.9977","78.9990"
"1104","48.0367","78.5872"
"1105","48.0757","79.6913"
"1106","48.1147","77.0973"
"1107","48.1537","80.1929"
"1108","48.1927","76.9954"
"1109","48.2317","76.7178"
"1110","48.2707","74.7456"
"1111","48.3097","73.7967"
"1112","48.3487","76.6198"
"1113","48.3877","79.2752"
"1114","48.4267","78.7101"
"1115","48.4657","76.2842"
"1116","48.5047","80.2692"
"1117","48.5437","74.5483"
"1118","48.5827","76.1666"
"1119","48.6217","75.0016"
"1120","48.6607","78.4732"
"1121","48.6997","76.7896"
"1122","48.7387","75.7035"
"1123","48.7777","74.6891"
"1124","48.8167","75.8676"
"1125","48.8557","77.6340"
"1126","48.8947","76.2098"
"1127","48.9337","76.8236"
"1128","48.9727","80.1419"
"1129","49.0117","77.9390"
"1130","49.0507","77.2321"
"1131","49.0897","77.2770"
"1132","49.1287","75.5792"
"1133","49.1677","77.3217"
"1134","49.2067","79.0338"
"1135","49.2457","77.9835"
"1136","49.2847","78.2383"
"1137","49.3237","78.3123"
"1138","49.3627","77.4099"
"1139","49.4017","78.0676"
"1140","49.4407","76.8496"
"1141","49.4797","78.2922"
"1142","49.5187","77.5574"
"1143","49.5577","78.0551"
"1144","49.5967","76.5275"
"1145","49.6357","76.9370"
"1146","49.6747","76.8393"
"1147","49.7137","76.7066"
"1148","49.7527","78.1707"
"1149","49.7917","79.0558"
"1150","49.8307","78.3410"
"1151","49.8697","78.1024"
"1152","49.9087","79.7497"
"1153","49.9477","80.5013"
"1154","49.9867","78.7337"
"1155","50.0257","77.4956"
"1156","50.0647","78.1713"
"1157","50.1037","77.5430"
"1158","50.1427","76.2013"
"1159","50.1817","77.2956"
"1160","50.2207","77.9437"
"1161","50.2597","78.3178"
"1162","50.2987","78.7572"
"1163","50.3377","78.3824"
"1164","50.3767","78.6629"
"1165","50.4157","79.1883"
"1166","50.4547","80.0666"
"1167","50.4937","80.9600"
"1168","50.5327","82.2969"
"1169","50.5717","82.2350"
"1170","50.6107","83.8941"
"1171","50.6497","88.2453"
"1172","50.6887","89.8781"
"1173","50.7277","91.7865"
"1174","50.7667","92.5079"
"1175","50.8057","92.3750"
"1176","50.8447","90.7533"
"1177","50.8837","89.7509"
"1178","50.9227","88.9520"
"1179","50.9617","90.0922"
"1180","51.0007","89.0519"
"1181","51.0397","88.6243"
"1182","51.0787","87.0335"
"1183","51.1177","83.4970"
"1184","51.1567","84.5544"
"1185","51.1957","84.8808"
"1186","51.2347","82.8939"
"1187","51.2737","80.9624"
"1188","51.3127","80.9742"
"1189","51.3517","78.6401"
"1190","51.3907","79.3141"
"1191","51.4297","81.5476"
"1192","51.4687","81.0378"
"1193","51.5077","80.4481"
"1194","51.5467","78.9918"
"1195","51.5857","75.9815"
"1196","51.6247","76.2024"
"1197","51.6637","78.5495"
"1198","51.7027","80.3208"
"1199","51.7417","79.5414"
"1200","51.7807","77.9742"
"1201","51.8197","77.7340"
"1202","51.8587","77.6257"
"1203","51.8977","81.9831"
"1204","51.9367","78.9564"
"1205","51.9757","79.9801"
"1206","52.0147","80.3318"
"1207","52.0537","82.8654"
"1208","52.0927","82.6538"
"1209","52.1317","81.3725"
"1210","52.1707","81.0090"
"1211","52.2097","82.1799"
"1212","52.2487","82.0032"
"1213","52.2877","83.2939"
"1214","52.3267","81.3273"
"1215","52.3657","78.5602"
"1216","52.4047","76.4913"
"1217","52.4437","79.2276"
"1218","52.4827","79.1204"
"1219","52.5217","79.2092"
"1220","52.5607","76.9108"
"1221","52.5997","79.0814"
"1222","52.6387","78.8877"
"1223","52.6777","77.7908"
"1224","52.7167","77.2660"
"1225","52.7557","81.8914"
"1226","52.7947","80.0192"
"1227","52.8337","77.2433"
"1228","52.8727","80.9366"
"1229","52.9117","81.1367"
"1230","52.9507","80.2481"
"1231","52.9897","79.5918"
"1232","53.0287","78.7026"
"1233","53.0677","78.2200"
"1234","53.1067","79.4439"
"1235","53.1457","79.3875"
"1236","53.1847","80.3396"
"1237","53.2237","79.4003"
"1238","53.2627","78.6581"
"1239","53.3017","78.0357"
"1240","53.3407","79.0460"
"1241","53.3797","79.9853"
"1242","53.4187","79.0491"
"1243","53.4577","78.4649"
"1244","53.4967","78.5835"
"1245","53.5357","77.3379"
"1246","53.5747","78.0024"
"1247","53.6137","78.1083"
"1248","53.6527","77.5255"
"1249","53.6917","77.0995"
"1250","53.7307","77.6725"
"1251","53.7697","76.6872"
"1252","53.8087","76.2408"
"1253","53.8477","77.3689"
"1254","53.8867","77.2769"
"1255","53.9257","76.2254"
"1256","53.9647","76.0595"
"1257","54.0037","74.9556"
"1258","54.0427","75.0854"
"1259","54.0817","75.5444"
"1260","54.1207","75.3993"
"1261","54.1597","76.0962"
"1262","54.1987","76.3960"
"1263","54.2377","76.1437"
"1264","54.2767","76.2806"
"1265","54.3157","76.3125"
"1266","54.3547","75.4206"
"1267","54.3937","74.7841"
"1268","54.4327","75.4848"
"1269","54.4717","77.2134"
"1270","54.5107","75.5551"
"1271","54.5497","74.2558"
"1272","54.5887","76.2551"
"1273","54.6277","75.8683"
"1274","54.6667","76.0833"
"1275","54.7057","76.1309"
"1276","54.7447","75.8840"
"1277","54.7837","75.7600"
"1278","54.8227","76.9357"
"1279","54.8617","75.8400"
"1280","54.9007","77.7467"
"1281","54.9397","77.7653"
"1282","54.9787","78.0793"
"1283","55.0177","78.0057"
"1284","55.0567","76.7231"
"1285","55.0957","77.7969"
"1286","55.1347","76.5586"
"1287","55.1737","77.7284"
"1288","55.2127","77.3120"
"1289","55.2517","77.3733"
"1290","55.2907","75.5790"
"1291","55.3297","75.3562"
"1292","55.3687","74.9524"
"1293","55.4077","75.2385"
"1294","55.4467","76.0922"
"1295","55.4857","76.4991"
"1296","55.5247","76.3710"
"1297","55.5637","76.5080"
"1298","55.6027","77.0198"
"1299","55.6417","73.6767"
"1300","55.6807","75.6277"
"1301","55.7197","76.6921"
"1302","55.7587","74.4361"
"1303","55.7977","73.8893"
"1304","55.8367","76.1310"
"1305","55.8757","77.2205"
"1306","55.9147","72.8520"
"1307","55.9537","76.2436"
"1308","55.9927","74.1726"
"1309","56.0317","75.8951"
"1310","56.0707","74.7841"
"1311","56.1097","78.6572"
"1312","56.1487","77.3630"
"1313","56.1877","78.1878"
"1314","56.2267","81.0672"
"1315","56.2657","78.0552"
"1316","56.3047","80.2253"
"1317","56.3437","81.0441"
"1318","56.3827","78.9979"
"1319","56.4217","81.3920"
"1320","56.4607","80.0155"
"1321","56.4997","80.5935"
"1322","56.5387","77.8754"
"1323","56.5777","76.7332"
"1324","56.6167","78.8176"
"1325","56.6557","75.4843"
"1326","56.6947","76.1252"
"1327","56.7337","76.2308"
"1328","56.7727","75.9173"
"1329","56.8117","76.1147"
"1330","56.8507","76.5241"
"1331","56.8897","78.3557"
"1332","56.9287","77.3682"
"1333","56.9677","78.8693"
"1334","57.0067","78.5832"
"1335","57.0457","78.5068"
"1336","57.0847","78.5402"
"1337","57.1237","78.1030"
"1338","57.1627","78.1978"
"1339","57.2017","76.5285"
"1340","57.2407","77.1920"
"1341","57.2797","75.8119"
"1342","57.3187","75.8144"
"1343","57.3577","77.9730"
"1344","57.3967","75.6564"
"1345","57.4357","75.4737"
"1346","57.4747","74.1661"
"1347","57.5137","75.1393"
"1348","57.5527","76.0552"
"1349","57.5917","76.6934"
"1350","57.6307","77.2980"
"1351","57.6697","77.9336"
"1352","57.7087","76.9281"
"1353","57.7477","77.5941"
"1354","57.7867","77.3852"
"1355","57.8257","74.9085"
"1356","57.8647","73.2789"
"1357","57.9037","75.1773"
"1358","57.9427","76.5605"
"1359","57.9817","76.4019"
"1360","58.0207","76.7105"
"1361","58.0597","76.4149"
"1362","58.0987","76.0559"
"1363","58.1377","75.5103"
"1364","58.1767","75.7267"
"1365","58.2157","76.5930"
"1366","58.2547","76.6451"
"1367","58.2937","76.7140"
"1368","58.3327","76.1831"
"1369","58.3717","76.7143"
"1370","58.4107","76.9660"
"1371","58.4497","77.1605"
"1372","58.4887","79.9918"
"1373","58.5277","78.1255"
"1374","58.5667","76.3565"
"1375","58.6057","76.6457"
"1376","58.6447","76.5081"
"1377","58.6837","76.3972"
"1378","58.7227","78.1875"
"1379","58.7617","77.7490"
"1380","58.8007","78.0176"
"1381","58.8397","78.3909"
"1382","58.8787","77.3015"
"1383","58.9177","78.5341"
"1384","58.9567","78.8917"
"1385","58.9957","80.8283"
"1386","59.0347","81.6893"
"1387","59.0737","83.8652"
"1388","59.1127","81.4930"
"1389","59.1517","83.1415"
"1390","59.1907","85.4693"
"1391","59.2297","84.4067"
"1392","59.2687","82.8660"
"1393","59.3077","81.7707"
"1394","59.3467","81.7921"
"1395","59.3857","81.7048"
"1396","59.4247","82.7254"
"1397","59.4637","81.9242"
"1398","59.5027","76.8824"
"1399","59.5417","77.6615"
"1400","59.5807","76.5693"
"1401","59.6197","76.6683"
"1402","59.6587","74.5091"
"1403","59.6977","73.6141"
"1404","59.7367","76.0331"
"1405","59.7757","74.9190"
"1406","59.8147","74.9352"
"1407","59.8537","76.4535"
"1408","59.8927","77.1266"
"1409","59.9317","77.0881"