File: mof-801_xrd/5L-all.csv
angle,5L-0,5L-1,5L-2,5L-3,5L-4,5L-5
5.0197,178.753,174.6447,167.1128,175.1426,169.4367,149.8703
5.0977,178.5834,167.2892,162.8552,174.1062,165.0576,147.7963
5.1757,168.6228,170.6974,159.0916,168.5837,163.2292,149.0894
5.2537,168.6865,166.3122,159.9892,169.5038,158.4357,141.554
5.3317,165.2441,160.2762,153.8499,160.2498,156.3019,141.1181
5.4097,163.218,156.2226,154.6347,156.2279,154.1549,135.7532
5.4877,159.4935,156.1454,149.7013,157.6048,152.3374,136.2016
5.5657,155.34,152.9158,150.072,153.2358,146.717,136.879
5.6437,152.2469,149.9131,146.9809,150.0679,145.4959,133.4515
5.7217,150.0971,149.1686,144.4955,148.7507,143.1017,131.9423
5.7997,150.0785,146.9894,142.6877,147.3569,141.4481,128.8203
5.8777,149.6522,141.1967,140.9962,144.5319,141.4261,129.2059
5.9557,146.1158,141.2279,139.3308,143.8303,136.4409,126.1877
6.0337,145.6838,140.0486,138.2518,142.6918,135.0924,125.0959
6.1117,144.9631,138.9968,137.4775,138.5589,135.1778,127.5882
6.1897,142.1619,141.3957,137.329,138.208,137.7562,125.0191
6.2677,142.2202,138.6157,134.5849,136.4557,131.3621,123.6882
6.3457,141.1222,136.6439,132.8371,137.8459,134.8305,125.7599
6.4237,137.9191,136.5777,134.6006,137.2282,133.7735,123.719
6.5017,141.6119,135.4803,133.2442,138.826,132.1224,124.7946
6.5797,138.5704,136.6247,134.9507,135.8486,128.9664,122.5146
6.6577,137.5732,134.0266,135.1213,136.3678,133.5374,123.6849
6.7357,135.853,133.4905,132.5191,135.4806,133.2809,120.8641
6.8137,136.6982,133.8361,134.0167,137.7186,130.498,122.7834
6.8917,134.6259,134.781,130.8989,135.244,131.8789,123.6919
6.9697,136.5621,132.0855,136.2726,136.8504,131.523,125.2531
7.0477,133.9866,130.7462,132.1034,133.0405,129.8221,123.4229
7.1257,137.9272,134.3062,131.1532,132.5026,129.0646,122.8949
7.2037,132.7083,132.6325,134.1681,132.6767,127.6528,126.0462
7.2817,135.8862,131.1237,131.2837,130.4281,126.6513,125.3869
7.3597,135.4212,130.8852,132.5219,128.9163,124.5913,125.2758
7.4377,134.3661,131.8953,132.4013,128.885,125.5277,125.994
7.5157,137.1026,131.2542,130.9642,126.3527,127.2535,126.7753
7.5937,137.2573,131.9099,133.7566,127.967,123.7785,128.4239
7.6717,141.8247,132.8686,136.3951,129.2555,127.0171,129.7112
7.7497,142.2902,133.244,136.1486,132.2008,129.7016,131.8383
7.8277,145.7619,136.4102,136.5581,132.3522,133.7955,134.0328
7.9057,149.7753,142.1687,141.5734,143.298,137.1818,138.4093
7.9837,160.4976,149.7176,148.8945,151.8994,141.8554,144.4225
8.0617,175.4122,157.6881,158.9608,172.478,159.3007,149.7692
8.1397,195.1788,170.7216,171.7016,197.1178,176.9081,164.7397
8.2177,231.1659,200.7306,191.9836,247.2164,204.759,182.1414
8.2957,278.9076,243.0857,223.09,315.786,258.4796,209.5798
8.3737,369.3006,302.8503,283.5648,441.4955,341.0037,253.6446
8.4517,515.5023,410.0369,368.4913,656.3496,482.2466,319.9585
8.5297,569.7476,563.3324,459.7985,792.3782,666.049,405.1775
8.6077,343.6006,561.4481,409.505,425.7205,619.7568,381.175
8.6857,215.7765,298.149,261.2223,204.4515,307.2006,275.1948
8.7637,185.5747,195.3804,202.3125,153.216,185.8511,215.7629
8.8417,174.451,172.7499,179.448,141.0353,156.6421,198.1068
8.9197,165.6984,164.5853,168.2262,135.4541,144.5176,192.375
8.9977,163.6557,153.1148,165.4575,127.8697,140.7847,185.8805
9.0757,161.8992,154.4808,158.2262,128.9758,136.3881,184.6949
9.1537,160.4817,149.8032,161.9627,127.8474,132.6859,178.7552
9.2317,162.3947,151.3791,156.5001,127.9166,132.6258,180.8973
9.3097,161.0402,155.9588,156.1822,130.4853,134.6507,175.5682
9.3877,164.2045,154.013,156.7548,136.0532,138.9947,171.8437
9.4657,171.0065,161.1565,160.0942,148.9949,141.4391,171.2112
9.5437,183.0979,164.7382,167.5187,162.807,153.8304,174.6666
9.6217,200.9184,179.5112,181.2768,195.9689,175.9467,181.9224
9.6997,238.3863,206.3686,201.3916,244.7965,208.6796,196.6538
9.7777,299.5892,248.8719,236.5677,339.8042,271.9242,223.261
9.8557,330.0306,316.9585,277.9925,395.412,353.3215,253.8636
9.9337,225.585,317.7092,259.6027,248.7125,334.1684,239.7951
10.0117,169.1324,209.4881,192.5001,153.1672,201.3158,190.0403
10.0897,150.45,160.6777,159.1849,130.7946,146.1759,159.4716
10.1677,142.3614,148.4981,151.3538,124.616,131.9015,148.6081
10.2457,142.2684,140.6741,146.5623,121.7854,126.2786,142.0819
10.3237,138.8828,136.9684,141.6476,120.9126,126.1518,139.1833
10.4017,135.3932,134.8559,140.0817,116.7437,126.0775,133.9885
10.4797,134.3755,134.1373,140.131,120.6181,122.4324,134.8742
10.5577,133.0298,132.1947,136.3396,118.7468,120.8025,133.9899
10.6357,134.1721,131.6572,136.4898,117.9562,119.702,133.2445
10.7137,130.6644,131.1086,132.2577,117.4119,119.7266,130.4878
10.7917,128.9894,130.6684,130.9078,118.3807,118.4654,132.2203
10.8697,126.6139,127.2109,128.1759,117.3406,118.8877,128.1155
10.9477,126.5147,128.7223,131.3183,117.4164,118.9866,127.5461
11.0257,125.7549,129.7163,126.0512,115.6018,118.5569,123.9126
11.1037,124.781,126.2188,127.1473,114.4676,116.8742,124.3882
11.1817,123.4192,127.6585,125.573,116.0975,117.7453,120.0469
11.2597,124.6299,126.514,127.5108,113.938,117.7029,122.0628
11.3377,122.2805,123.2796,124.8118,112.7017,115.5337,123.5948
11.4157,122.5516,123.0424,120.5325,113.6642,115.5603,122.8366
11.4937,122.7353,125.1668,120.3433,111.0537,115.0743,121.6981
11.5717,124.6473,122.7241,123.9141,114.9227,115.3856,119.7638
11.6497,119.1551,121.2112,122.6819,115.2913,115.6643,119.171
11.7277,119.2334,120.2718,119.8733,112.2035,116.3644,118.537
11.8057,118.1599,121.084,119.9896,112.8799,112.5427,118.3788
11.8837,118.9046,120.0701,118.4355,112.3352,115.1948,116.9317
11.9617,116.5576,123.2649,116.9995,113.3056,112.7253,114.7449
12.0397,116.0358,121.6966,117.0304,110.1922,115.0819,117.6004
12.1177,117.1463,118.9749,116.207,112.2913,111.187,113.5286
12.1957,114.8943,122.5934,116.8348,109.8256,111.7266,115.7102
12.2737,117.9605,120.4799,117.776,106.0515,111.546,114.6753
12.3517,111.9399,121.9788,118.7152,110.8115,111.311,110.8984
12.4297,115.5171,116.361,112.7159,110.4737,110.0138,113.5054
12.5077,115.0199,118.9115,115.832,107.78,111.8794,113.419
12.5857,114.6037,120.9951,115.0399,106.494,108.602,111.4415
12.6637,112.3425,114.9805,111.2811,106.4026,109.6289,113.3417
12.7417,114.5889,118.395,113.0907,108.6765,108.85,111.11
12.8197,110.9476,118.7706,111.6037,106.6304,109.9989,112.931
12.8977,113.8851,114.5218,109.288,106.4137,107.0066,110.9877
12.9757,112.1112,116.9906,111.0451,106.3453,109.4867,111.9523
13.0537,113.3394,115.854,111.1522,106.5214,109.3303,113.1173
13.1317,112.4187,118.3666,109.664,104.29,108.0279,109.5011
13.2097,112.4461,114.9969,106.5687,103.2756,107.5759,109.3905
13.2877,109.8231,114.8138,108.4981,105.4738,105.829,108.7731
13.3657,110.7942,113.3172,109.9869,104.2059,108.2006,111.5676
13.4437,114.3594,118.7481,109.0153,102.9106,106.7889,113.0479
13.5217,109.3669,117.2111,108.6661,104.0725,106.3328,109.9034
13.5997,111.9748,114.7081,110.3495,104.3232,107.3603,110.578
13.6777,110.4579,117.1707,110.6751,107.3145,105.5848,109.5109
13.7557,112.1457,116.8371,109.2101,107.3517,106.7706,112.8391
13.8337,114.8704,117.0278,111.1143,113.0841,110.5339,111.8166
13.9117,117.5178,119.1999,114.6898,121.0143,114.7031,114.0646
13.9897,119.0971,126.3895,115.6126,121.6276,120.0922,116.0034
14.0677,113.858,124.8558,114.8589,107.456,117.8826,115.3582
14.1457,109.5728,117.9564,107.4761,106.1635,109.7536,112.7741
14.2237,107.5602,112.1548,106.5811,104.0379,104.8426,106.4979
14.3017,107.8644,112.6292,106.6694,103.8941,104.312,109.1281
14.3797,105.993,114.5166,107.0237,101.2437,102.8456,108.5233
14.4577,106.8774,112.1819,106.0589,103.2762,103.9098,106.4325
14.5357,106.9906,112.4019,104.1547,104.609,104.0662,105.676
14.6137,104.0547,111.9792,105.8036,101.6064,104.045,106.9395
14.6917,103.9671,109.3855,103.0538,101.4255,104.3665,108.2142
14.7697,105.7792,112.4101,105.2362,101.6694,103.1636,107.0566
14.8477,104.8981,109.6687,104.5136,101.4016,101.5452,107.2513
14.9257,107.1882,110.7953,103.2109,98.8675,98.0148,105.441
15.0037,105.852,111.0596,102.5472,99.4337,101.3111,106.1604
15.0817,102.9689,111.8736,102.2837,100.5653,98.0922,106.1058
15.1597,106.016,109.6013,102.1172,99.915,100.8598,103.6639
15.2377,104.421,110.4848,102.7079,98.4411,101.1513,105.5948
15.3157,106.4281,109.4806,102.5831,99.6462,98.0763,103.9536
15.3937,104.632,110.0084,101.6461,97.431,100.0195,104.6265
15.4717,104.6199,105.2042,100.3923,97.8379,99.1536,104.9778
15.5497,103.3943,107.9565,99.4899,97.6373,98.122,102.2969
15.6277,100.4813,107.3896,102.013,97.462,98.1694,103.3354
15.7057,104.4098,107.0625,101.0173,98.535,97.0718,103.3406
15.7837,103.1302,106.2274,98.9756,94.6611,98.5085,102.9055
15.8617,102.9101,107.1376,100.8036,96.387,98.4795,101.0008
15.9397,100.0047,106.6112,100.2311,95.0314,98.3859,102.4997
16.0177,99.9354,107.2727,100.418,97.5812,99.0416,103.3037
16.0957,101.8801,109.2111,98.1301,97.181,94.1957,101.4699
16.1737,101.856,106.1217,97.7051,95.888,97.4571,104.2486
16.2517,101.1645,102.2711,100.2168,98.0696,98.8607,102.0292
16.3297,102.2138,109.2114,98.4196,98.22,96.4204,101.0095
16.4077,102.7235,102.3623,99.9562,100.4861,98.9496,105.2695
16.4857,99.9918,105.6596,100.6248,95.6547,98.3971,104.9345
16.5637,100.4759,106.6003,97.9551,94.6269,96.2618,100.9588
16.6417,99.629,103.7876,95.88,95.1442,92.3356,103.9746
16.7197,99.1395,102.8312,96.4512,93.0066,94.1738,101.5313
16.7977,100.7478,105.5134,97.8549,93.4628,92.387,99.0404
16.8757,96.4674,104.2037,95.2108,91.9049,96.4327,98.3048
16.9537,100.2911,104.5523,98.5083,92.773,100.068,99.9705
17.0317,99.0117,105.9772,96.9077,95.9343,94.7058,98.4961
17.1097,101.1685,104.2834,99.0494,94.1528,93.3944,102.0202
17.1877,101.1602,106.4942,97.824,96.0614,97.7721,99.9762
17.2657,100.4482,103.5866,98.8141,94.8739,94.9396,100.8765
17.3437,96.7843,104.3078,96.8094,92.0896,97.6302,100.9992
17.4217,98.5715,102.7201,96.4281,95.7163,95.0903,100.2479
17.4997,97.9649,103.0818,96.143,93.9304,93.4831,98.8791
17.5777,95.7799,102.5057,96.0408,93.2339,94.7953,97.4329
17.6557,100.1109,102.3606,95.4928,92.138,93.1703,97.7676
17.7337,96.1057,101.9075,98.7022,92.817,91.9179,97.5221
17.8117,97.0142,103.51,96.0563,92.1341,94.3426,96.8092
17.8897,97.9828,99.8909,96.5209,92.9013,95.0499,98.9202
17.9677,98.6323,101.1213,96.0021,94.453,95.4245,97.4769
18.0457,98.1827,100.0566,96.8265,90.0707,93.0979,97.172
18.1237,97.7416,101.5137,93.8626,92.9627,93.3577,96.367
18.2017,97.1415,101.5036,96.9678,92.2705,94.3219,98.382
18.2797,95.8541,100.8009,96.8036,93.8173,92.2877,98.4017
18.3577,98.5828,101.2187,94.5921,89.9725,95.4071,97.8266
18.4357,97.3967,99.9566,94.5177,93.6434,93.5316,98.7282
18.5137,96.5932,99.5057,95.3705,94.3312,93.5661,96.8065
18.5917,96.6747,101.9063,94.6074,92.5785,92.3558,97.9728
18.6697,97.4601,100.9005,95.0531,91.3524,91.8741,97.9997
18.7477,96.1785,100.6571,92.4647,92.1418,91.3123,97.7725
18.8257,95.9026,101.7522,95.2596,93.5175,93.392,99.1187
18.9037,96.2613,101.2155,93.7151,91.8809,91.1199,97.5727
18.9817,96.5189,102.5473,98.5337,93.448,89.8504,97.3637
19.0597,94.1584,101.7311,95.1061,90.9137,92.5519,100.0671
19.1377,97.6027,99.7313,97.0251,91.4736,92.2304,97.0245
19.2157,95.8269,100.1622,96.2643,92.9313,91.1324,98.7384
19.2937,97.0794,100.8829,95.0875,93.2167,92.9677,96.3204
19.3717,98.7487,100.5418,95.3232,90.1064,92.01,96.8565
19.4497,97.8263,99.0695,95.017,92.7522,92.9313,99.1315
19.5277,98.6152,99.3619,96.442,93.8677,91.6647,98.0013
19.6057,100.9763,100.2835,93.8453,95.6087,90.5099,98.1849
19.6837,105.54,103.5225,97.1111,101.5913,94.4017,98.3129
19.7617,111.7834,105.6826,101.0809,113.2204,100.2766,103.8059
19.8397,115.5751,116.6532,107.9494,111.5057,109.3192,104.92
19.9177,106.4906,123.1914,106.0356,99.414,108.4291,103.0735
19.9957,101.0681,113.5307,102.841,93.6642,101.8782,99.7103
20.0737,99.1738,102.5534,95.1852,89.878,93.9014,100.0774
20.1517,96.8682,101.4978,97.0803,92.8083,92.484,96.9158
20.2297,99.4748,98.7689,96.4586,92.5382,92.8528,98.6564
20.3077,95.2005,102.6352,95.6382,91.4754,90.9513,99.1238
20.3857,94.4037,101.1624,94.6851,90.9371,91.921,98.6129
20.4637,97.4309,99.7215,96.9197,90.9649,91.5466,95.6014
20.5417,99.2197,102.5513,96.1594,92.4671,87.4659,95.1825
20.6197,100.6708,102.1718,96.617,90.9733,89.3155,98.3931
20.6977,98.9412,99.2587,93.7591,91.5967,90.7486,96.0045
20.7757,100.4043,98.6222,97.1086,90.4472,93.4912,97.4095
20.8537,95.4224,98.6994,97.171,91.3049,90.9933,96.4503
20.9317,99.3963,100.263,95.7987,93.5252,92.3035,96.9571
21.0097,99.5044,101.1742,94.5241,89.8427,90.2542,97.9063
21.0877,99.0829,96.8491,97.816,92.9297,92.0281,98.2759
21.1657,98.7358,100.1605,96.2054,90.7587,91.6395,100.6133
21.2437,101.4981,102.3488,96.5987,93.7592,93.9106,102.6141
21.3217,105.2567,101.8039,100.3686,96.2681,95.4079,102.7483
21.3997,104.1483,104.7016,100.942,103.8241,97.0639,105.265
21.4777,115.8703,106.7343,106.387,123.8276,102.8906,112.1171
21.5557,134.5601,116.8862,114.3213,160.7257,118.3635,124.6582
21.6337,156.6687,142.4957,132.1655,175.5621,154.2728,133.4748
21.7117,133.147,165.7101,139.2519,125.2755,162.292,129.3508
21.7897,111.0772,146.9389,118.6919,100.1176,124.2239,113.2406
21.8677,105.0474,116.9469,102.7277,95.2727,103.1008,106.4021
21.9457,102.1518,104.5742,101.7358,92.3985,98.2543,104.4811
22.0237,103.2093,104.0699,98.5575,91.9954,92.968,103.1909
22.1017,103.7246,103.8508,99.4183,99.8335,96.3625,103.6875
22.1797,105.8008,106.3991,102.4198,99.7463,97.1309,105.2751
22.2577,105.6459,109.452,103.9214,94.8637,100.3264,106.6954
22.3357,101.1581,109.4628,102.9337,89.5627,97.2477,102.5653
22.4137,100.6147,101.1525,99.5622,92.3759,94.7762,103.527
22.4917,102.9883,102.4931,99.0547,91.4765,92.4605,101.4204
22.5697,100.4674,103.5305,99.7304,93.0688,94.4151,103.4277
22.6477,103.1649,103.7465,99.7959,97.1232,94.4873,104.2086
22.7257,105.6602,107.8112,100.6271,98.7842,96.4422,106.0483
22.8037,104.0928,107.8725,102.7586,95.7149,97.8678,103.7601
22.8817,103.7224,110.3998,103.6591,96.0883,93.741,102.4362
22.9597,99.5398,106.2284,99.4579,92.9321,94.6766,103.2406
23.0377,99.2738,102.8906,98.7001,91.8172,94.474,101.838
23.1157,98.4028,100.8372,98.01,91.5719,92.7581,103.6123
23.1937,96.4228,100.6743,97.116,92.693,92.9469,102.286
23.2717,97.167,100.0624,98.3916,92.6256,90.4136,101.237
23.3497,98.5943,102.5017,97.6035,91.5952,92.0815,102.119
23.4277,97.3787,102.0687,97.9002,91.6655,91.3587,103.9018
23.5057,96.8846,102.7981,97.8946,94.749,90.2567,100.8398
23.5837,100.3146,102.6519,98.2059,89.9795,89.4885,101.0551
23.6617,99.1015,100.6311,98.6842,91.3473,90.719,103.3545
23.7397,98.9765,102.3272,99.12,91.3489,92.3934,101.5894
23.8177,96.9739,100.5374,101.0365,90.9376,92.5507,104.9657
23.8957,100.0788,102.8053,100.1125,94.3916,90.063,102.6888
23.9737,99.3321,101.8861,100.951,94.2062,90.6392,103.4404
24.0517,102.9108,102.8465,102.4107,94.9674,95.4837,100.8144
24.1297,103.3476,101.6027,100.8092,99.2391,93.6106,109.4415
24.2077,108.8331,103.1113,106.1095,115.559,100.186,111.1583
24.2857,121.9284,108.0926,109.185,136.879,109.0219,115.9992
24.3637,136.8404,125.6183,116.8013,141.6158,129.0641,122.7127
24.4417,120.4893,137.6525,125.6729,111.9286,134.4593,117.3437
24.5197,105.997,131.2955,111.0206,99.8506,114.1891,109.1131
24.5977,103.1739,111.0373,101.0486,96.9856,98.6106,106.4011
24.6757,101.6918,105.5121,101.9808,96.1925,96.6061,102.4188
24.7537,99.4088,104.5538,100.3684,97.7719,96.7757,104.4519
24.8317,98.7653,105.7285,100.823,95.366,97.4712,104.838
24.9097,101.6422,104.5079,101.1441,93.8902,97.4167,103.7897
24.9877,100.031,103.7107,102.7685,95.8675,93.7754,103.9535
25.0657,101.3092,104.3096,99.9378,96.1199,90.5822,103.3198
25.1437,100.2595,102.8214,102.5219,97.708,96.4326,101.9615
25.2217,102.9904,106.959,102.0122,97.4128,95.4412,104.1536
25.2997,105.1685,107.3268,102.1462,102.7607,99.2676,105.5367
25.3777,106.1743,108.5259,103.6169,101.1473,99.3964,102.568
25.4557,105.9076,113.3915,107.4548,101.6438,100.8557,105.1209
25.5337,107.059,111.2544,104.837,103.3828,100.3694,104.566
25.6117,106.8326,107.3111,104.477,109.3358,100.3683,106.1354
25.6897,113.7074,110.9935,106.4646,127.8283,105.9839,112.229
25.7677,133.5325,118.9612,115.365,173.6176,122.2997,122.8826
25.8457,159.0667,132.6729,131.4683,195.1205,152.444,137.5387
25.9237,148.1196,165.4961,143.7845,145.9642,175.2644,133.2502
26.0017,120.3032,166.7115,133.052,110.0432,145.373,119.9584
26.0797,107.1578,130.9772,110.5524,99.2027,109.9651,109.2455
26.1577,103.6837,110.8341,105.3029,97.5976,99.316,101.8529
26.2357,101.7934,107.2645,102.1701,94.8431,95.9259,100.9007
26.3137,101.3903,104.2285,100.2945,97.7302,95.4923,100.701
26.3917,99.9014,105.8434,99.0754,95.5056,94.2462,102.3355
26.4697,100.6173,104.6473,101.139,95.3318,93.642,101.5564
26.5477,98.3657,101.3476,103.2232,93.7918,94.1817,98.2231
26.6257,99.3501,102.6624,98.1819,93.8272,93.9183,99.9141
26.7037,100.3294,103.5302,96.6567,96.3805,92.4554,101.3626
26.7817,97.4931,100.9356,100.0833,93.1383,92.8992,98.8925
26.8597,97.5583,102.5315,98.8812,93.6138,93.5636,98.2947
26.9377,98.788,101.4162,98.0207,94.3917,94.3985,100.3908
27.0157,99.0416,101.2038,96.7213,92.9349,92.7195,100.1828
27.0937,97.7207,101.6557,96.8087,92.099,91.6206,102.2735
27.1717,98.6305,101.088,98.1818,93.4831,91.3177,97.5172
27.2497,98.2177,100.9663,97.1104,92.1976,90.565,97.841
27.3277,98.2922,99.5829,95.3802,91.5274,91.2035,99.1665
27.4057,98.7751,101.0706,96.9841,91.0274,89.7312,101.1428
27.4837,97.3469,101.4592,98.3554,90.9365,88.8522,100.2451
27.5617,94.9921,98.6234,96.1284,89.8975,89.419,100.5397
27.6397,95.3475,100.7649,98.8938,89.7766,88.184,98.5344
27.7177,96.2984,100.1883,98.3678,88.4634,88.5075,97.1368
27.7957,98.5629,97.9038,93.6839,89.8429,89.9256,96.4212
27.8737,96.4676,98.5048,98.2587,91.3788,89.5856,98.266
27.9517,96.5866,99.5901,97.0446,90.8605,90.8631,98.3306
28.0297,98.0768,100.386,97.1224,93.5699,92.4357,98.8847
28.1077,97.4596,100.3853,96.2184,98.0749,91.8332,99.6941
28.1857,103.2841,100.8732,101.616,100.3547,97.1078,102.4635
28.2637,103.1487,107.0004,96.9904,91.9925,98.4469,102.6125
28.3417,100.1016,106.3445,97.4752,85.7565,91.8038,100.7329
28.4197,96.9974,100.6384,96.1253,87.9068,88.5267,98.0744
28.4977,96.3985,97.8051,98.2671,87.5456,87.0606,97.7539
28.5757,94.9871,90.5353,96.6689,89.2093,89.7926,96.7934
28.6537,96.9721,96.4784,94.0288,88.032,84.9921,98.4312
28.7317,94.9415,95.2315,93.6754,89.9537,87.7208,100.324
28.8097,94.1951,97.8853,93.3216,89.2167,86.2254,100.74
28.8877,97.5805,95.6836,93.3918,89.118,87.0476,97.8071
28.9657,95.0104,96.6772,95.148,89.6744,85.476,99.852
29.0437,92.1068,93.5569,96.2369,87.739,88.1032,100.1083
29.1217,97.3126,98.2148,95.5235,93.162,85.8394,98.632
29.1997,95.6629,100.9485,95.7222,93.9862,88.6076,98.3094
29.2777,98.2817,97.8865,96.6702,94.1977,90.247,100.668
29.3557,99.6951,101.3705,97.2605,100.1203,92.3156,101.5869
29.4337,108.5363,98.8553,99.8774,115.5063,95.9664,104.3934
29.5117,114.4142,107.4393,106.7493,123.8439,108.0881,109.6711
29.5897,114.1274,117.4625,110.5009,110.4025,115.9826,109.3598
29.6677,108.5573,119.2782,108.3714,102.6421,109.569,107.5681
29.7457,110.873,108.9477,106.0843,118.5231,103.115,109.0153
29.8237,124.5535,108.9953,109.8458,158.8916,110.9522,119.4795
29.9017,156.2865,115.027,123.5983,223.5168,144.688,136.816
29.9797,175.7168,147.2961,146.3603,195.3122,188.3336,147.1347
30.0577,141.9683,186.9543,148.9078,127.9156,180.0427,131.7101
30.1357,110.2817,165.7039,124.8814,100.3552,131.7672,111.3254
30.2137,100.9948,123.6334,104.1534,94.485,104.0464,101.7263
30.2917,96.8249,104.1374,97.9183,91.5063,91.6295,97.3991
30.3697,95.1778,97.5542,98.4422,90.4438,90.8347,96.1421
30.4477,94.6212,95.8211,95.8492,87.1266,88.4698,95.2667
30.5257,96.131,94.5059,92.3359,87.2392,86.9301,95.3564
30.6037,95.5932,95.666,93.0003,89.0468,88.3186,93.7071
30.6817,93.9684,96.6974,93.0142,86.6839,86.564,93.9488
30.7597,93.8889,96.192,92.6453,87.9463,87.9362,94.033
30.8377,95.6611,94.335,93.6046,87.7494,86.6928,94.8382
30.9157,92.9376,96.1454,93.1156,87.787,86.2837,94.9399
30.9937,93.9912,95.9219,93.7427,85.7866,84.7542,91.8776
31.0717,93.1461,95.1485,93.9527,85.8559,86.773,92.2366
31.1497,92.8236,92.9945,92.4344,86.5846,85.1572,92.7479
31.2277,90.6146,91.8894,89.3634,85.4355,84.8939,92.0218
31.3057,92.2035,94.814,89.8198,84.0427,83.0089,91.2761
31.3837,89.984,93.0108,93.703,84.1802,83.8607,89.7828
31.4617,90.1112,91.6712,91.1826,88.3778,83.5244,90.2188
31.5397,91.1464,91.0332,89.19,86.1886,83.252,91.9535
31.6177,92.7518,91.2704,93.3348,84.8146,83.3312,93.0123
31.6957,90.0501,92.0708,91.6027,85.2977,85.0282,91.6564
31.7737,91.9911,93.2743,91.2501,85.7526,86.2394,92.0511
31.8517,92.4933,92.5865,93.1187,87.785,85.2311,92.8632
31.9297,94.8085,93.2778,90.3953,88.4818,89.4157,93.4741
32.0077,95.7865,96.1696,92.4779,90.333,86.8549,90.5368
32.0857,94.9121,97.9534,94.8788,85.6219,85.9457,95.0024
32.1637,93.5428,98.0482,92.0976,86.3964,87.9127,93.4673
32.2417,91.1983,96.0818,92.6192,87.5814,85.6584,89.6485
32.3197,88.4546,95.8664,89.8615,86.2572,84.3465,89.2766
32.3977,94.4631,92.1193,90.4893,87.0579,82.8374,90.9136
32.4757,89.8379,89.9944,93.0475,87.4089,83.1817,90.7362
32.5537,88.2114,90.3622,92.1534,87.6262,82.591,93.3581
32.6317,92.6808,92.4178,92.9537,93.6136,83.7612,92.7835
32.7097,100.204,92.1758,90.7136,110.465,89.733,97.412
32.7877,111.6286,98.4294,101.7057,119.9854,102.6191,104.6074
32.8657,113.037,107.7194,106.907,106.5714,114.2814,101.6112
32.9437,100.3034,119.1385,103.8738,88.8463,106.1835,95.0385
33.0217,93.4112,110.0694,96.125,86.3155,88.0399,91.7478
33.0997,89.501,97.2798,92.5024,85.0121,84.1538,93.0021
33.1777,91.467,91.8683,91.1198,86.3479,86.2762,90.6129
33.2557,91.2259,91.7285,90.1097,84.2326,85.2794,88.7713
33.3337,90.7943,92.508,88.7077,80.9379,81.2263,91.3357
33.4117,91.0534,90.4056,88.505,81.7195,82.2274,88.6512
33.4897,88.8244,91.8453,88.3859,82.6799,81.2331,90.061
33.5677,90.4376,91.0609,87.8481,82.5791,80.3872,86.8008
33.6457,89.6461,91.5289,88.5133,82.4835,80.6962,88.8051
33.7237,86.165,90.8252,88.7783,81.3316,79.4831,88.7129
33.8017,89.012,91.1921,87.1104,83.6345,81.9561,88.8936
33.8797,87.7497,88.6453,88.8195,81.0827,83.2204,88.3494
33.9577,87.622,89.9092,88.9917,79.8664,81.7413,87.57
34.0357,88.7567,90.0787,88.8331,81.3907,80.8702,86.9909
34.1137,88.871,90.6485,88.1983,80.7952,78.647,85.9639
34.1917,87.1618,89.4854,89.0108,79.3706,79.6556,86.2015
34.2697,85.6072,87.1823,86.2569,81.8589,80.6607,89.7678
34.3477,89.2193,88.0605,87.296,84.9896,79.3874,88.7404
34.4257,89.0126,88.2372,87.4524,85.2364,82.7074,88.0052
34.5037,90.5597,89.7911,86.7282,91.3086,83.5847,87.3645
34.5817,95.7845,90.3553,92.8098,107.7143,85.845,93.9984
34.6597,106.7796,95.5299,96.959,131.4585,97.956,102.9229
34.7377,117.1311,99.5223,105.9269,125.2729,117.1424,106.6115
34.8157,111.7066,120.3721,112.5013,102.6558,120.3931,103.6807
34.8937,96.8009,121.9299,103.8676,88.729,104.2089,95.7653
34.9717,93.0695,108.6936,95.0292,86.1879,90.6,92.4351
35.0497,89.9607,97.7985,89.5001,82.2916,84.5871,88.1291
35.1277,91.1932,92.11,89.3051,83.9373,82.2944,88.7026
35.2057,88.8001,89.631,86.2641,84.7569,81.7709,88.3032
35.2837,90.1585,89.6524,86.7609,84.4652,84.1526,88.7286
35.3617,90.5342,93.2164,89.5759,88.5357,83.4223,88.5582
35.4397,90.4305,91.5029,89.0169,86.6923,85.6797,91.5362
35.5177,93.0856,94.8182,88.354,87.4536,83.2276,89.1682
35.5957,88.8838,92.1967,89.6841,86.6037,84.8218,92.672
35.6737,92.8936,97.4972,89.9417,96.4542,84.4355,90.3234
35.7517,98.5998,91.9913,90.1342,106.0085,84.8941,92.8769
35.8297,101.5644,96.5334,94.6416,106.2092,98.9091,96.1872
35.9077,100.2068,103.1947,100.666,94.5988,102.3964,92.4576
35.9857,93.1129,107.5513,92.895,85.2515,94.1932,89.7165
36.0637,88.8812,100.4575,90.8337,81.3253,85.5878,88.0694
36.1417,82.8058,91.6772,87.4913,83.0211,82.5726,87.2469
36.2197,84.9427,90.0039,85.2639,78.0651,75.7929,87.5123
36.2977,86.4175,85.9318,85.6002,80.078,78.3267,85.0686
36.3757,84.6785,86.3858,85.1665,79.5448,77.5322,86.4312
36.4537,84.4265,90.2354,85.8016,79.4715,76.8194,82.0041
36.5317,85.357,86.4919,83.0925,79.7103,77.4668,84.1256
36.6097,86.1177,86.522,83.8891,78.7541,78.396,85.4953
36.6877,84.94,85.944,84.8189,79.2484,78.377,83.623
36.7657,85.9843,85.5246,84.3209,79.567,77.8325,82.6678
36.8437,84.2577,87.4269,85.8476,76.6623,78.3113,83.6272
36.9217,84.4913,88.7451,85.4065,78.1834,79.2478,85.7109
36.9997,84.8211,85.3717,85.9258,80.6561,74.2773,84.7148
37.0777,82.9581,84.6225,83.8055,79.1961,77.202,84.374
37.1557,84.4321,83.7309,83.5495,76.1007,76.7702,83.595
37.2337,86.0356,85.2778,83.67,79.8448,76.8473,81.7706
37.3117,84.6797,84.0573,85.2733,82.0223,77.387,85.4479
37.3897,83.539,87.4133,83.4581,81.077,74.6179,82.2984
37.4677,84.3409,83.8213,84.0782,78.2252,78.9351,86.1787
37.5457,85.0407,86.2134,87.2425,82.5101,75.4652,85.1805
37.6237,83.4355,86.9747,84.4015,80.069,79.0325,85.9281
37.7017,87.5193,89.97,86.1766,80.1587,80.0245,84.5417
37.7797,86.4122,87.1528,86.5713,80.4727,79.044,85.1616
37.8577,87.2423,86.8394,84.5669,78.5293,78.4715,83.3063
37.9357,84.396,87.6623,85.2256,79.5427,76.9347,85.0502
38.0137,82.8954,86.3576,84.7163,80.1887,78.3591,84.1374
38.0917,84.2793,87.8748,85.7313,78.3063,76.7536,82.9295
38.1697,85.5503,86.7542,83.8025,81.8136,75.7693,85.3201
38.2477,83.3478,84.7274,84.956,80.0803,77.4246,83.441
38.3257,86.6819,88.1585,87.09,81.9312,78.8312,84.4068
38.4037,87.5111,83.8842,86.4767,86.0517,79.5977,85.1664
38.4817,90.984,86.5635,86.5422,97.2823,80.6513,88.5624
38.5597,99.7736,89.7364,88.1703,118.6503,88.0949,96.2615
38.6377,111.2037,93.1499,96.3159,120.1492,105.6921,101.3677
38.7157,108.1721,106.2278,102.2839,102.303,112.3406,98.3428
38.7937,99.6957,117.5527,101.5522,87.8357,103.7105,91.9088
38.8717,89.7185,108.3924,93.455,82.0542,89.2962,88.6073
38.9497,88.5801,97.5609,89.1792,79.3568,83.2931,84.4882
39.0277,85.4762,92.0094,87.3871,81.0784,77.163,85.5096
39.1057,87.2848,87.1898,85.4367,78.096,77.9632,83.5786
39.1837,83.8954,85.9632,83.0289,79.9144,77.037,85.0831
39.2617,84.2239,87.6626,85.9851,80.5642,78.0859,86.854
39.3397,86.4959,87.3733,84.799,81.6243,78.2724,84.3918
39.4177,86.9061,88.2271,87.4088,81.0159,77.149,82.9488
39.4957,86.4573,88.69,85.4118,82.6255,77.4768,84.6696
39.5737,86.2501,89.0119,85.4785,80.7583,78.858,85.2803
39.6517,87.0976,83.8165,86.4785,77.9032,78.568,83.5164
39.7297,84.8216,86.452,85.7679,77.1483,76.5052,82.9575
39.8077,85.4862,85.5724,84.6797,78.4056,75.2535,82.5146
39.8857,84.8261,87.053,82.2644,76.6801,78.6444,85.2505
39.9637,85.5404,85.9923,81.4559,78.017,76.6499,84.2584
40.0417,85.3455,84.8994,85.2455,79.7111,77.6093,84.33
40.1197,87.627,86.6287,82.0134,81.3042,77.7687,84.8281
40.1977,85.0497,85.5274,87.3603,84.0173,77.8838,85.4641
40.2757,91.7586,86.406,87.4748,89.0498,79.556,85.3646
40.3537,93.3854,86.6054,85.2892,85.719,82.8347,83.6234
40.4317,89.5259,93.0965,89.9293,84.6704,84.3327,86.521
40.5097,91.1183,93.8724,85.5711,82.1611,81.3157,86.7184
40.5877,87.6457,90.1233,87.0542,81.8359,79.1225,84.8965
40.6657,88.2979,87.045,85.4395,81.4028,78.8285,85.5433
40.7437,86.2832,90.6598,85.9982,80.1684,78.3545,85.3239
40.8217,85.1605,88.7861,87.6841,79.7015,77.2639,85.2086
40.8997,84.0641,89.3996,84.9953,76.7166,78.7107,86.9701
40.9777,83.3562,86.6768,86.39,79.9075,78.2025,84.7954
41.0557,85.2879,84.9912,84.5188,79.0713,77.1665,86.2743
41.1337,84.3099,85.9322,86.5976,78.9911,77.7442,83.3744
41.2117,86.0421,85.8149,85.5375,80.7346,77.2537,86.1543
41.2897,88.5992,86.0577,85.408,80.4206,77.1914,87.0864
41.3677,88.1321,83.9695,85.3838,86.1413,79.7576,84.3008
41.4457,88.4756,88.8796,84.3445,94.1509,78.2024,87.1327
41.5237,95.4524,87.2515,89.7142,112.569,87.2347,92.7914
41.6017,107.5202,90.8824,96.3664,117.7693,101.9315,99.5875
41.6797,108.8957,100.7404,101.5893,104.0373,110.3573,96.3286
41.7577,97.9827,111.7237,101.2644,88.6829,100.9066,91.7158
41.8357,91.53,108.6189,93.0647,81.0118,89.5581,88.951
41.9137,89.4595,100.2304,88.8766,82.1226,81.4161,86.8004
41.9917,86.2052,92.1498,87.0067,79.587,78.9088,85.2726
42.0697,87.1218,89.0979,85.1428,77.8038,78.0864,84.2475
42.1477,86.2817,89.4239,90.0725,79.2787,77.7055,84.4945
42.2257,87.1247,85.9191,86.2661,77.7204,78.1004,85.0334
42.3037,84.7617,85.4244,87.7435,79.6194,79.3479,85.6497
42.3817,85.2921,86.9669,84.8406,77.8078,77.4343,84.1772
42.4597,88.9621,86.7307,85.681,79.3484,75.4822,84.7451
42.5377,85.8681,85.8351,84.6165,79.2897,78.4861,83.2862
42.6157,87.6001,86.4564,84.7173,79.4953,77.3499,86.2637
42.6937,87.9861,85.2069,87.6639,87.9841,76.6493,87.4788
42.7717,90.1856,86.1523,88.2886,100.0782,82.7267,87.8242
42.8497,98.8484,87.6375,89.2189,105.1964,90.6753,94.0887
42.9277,101.2461,92.4241,94.6898,96.7035,95.0938,91.1962
43.0057,96.826,101.3414,96.2747,87.1642,95.7204,91.1639
43.0837,90.2779,102.1486,91.5915,82.9731,86.0765,87.6461
43.1617,86.8202,96.9776,88.7089,78.6065,78.8306,87.4172
43.2397,87.818,87.8783,83.9024,77.4143,78.4045,83.6933
43.3177,85.9637,86.8514,84.7327,80.4256,80.8507,86.2331
43.3957,86.0523,84.7489,84.1132,80.4309,76.6359,86.2232
43.4737,88.8567,87.173,88.189,81.1788,78.5645,86.0112
43.5517,88.9299,85.1949,87.0681,85.5437,79.9003,89.7943
43.6297,90.8303,87.2048,89.4617,97.1302,82.4408,89.885
43.7077,98.9567,88.8229,91.5237,123.749,90.2377,97.5897
43.7857,113.7821,92.0371,98.3708,134.066,107.0073,103.2045
43.8637,118.9042,103.4243,109.0403,115.4861,123.4475,103.5749
43.9417,108.107,118.1644,107.6961,97.2704,112.4,98.1344
44.0197,97.9617,122.8529,104.2317,94.632,102.9502,90.7165
44.0977,95.1801,109.895,95.7501,92.5296,90.8909,92.8568
44.1757,94.6974,97.9854,93.9417,84.1871,87.702,85.1822
44.2537,93.3899,98.1709,90.6024,81.4139,87.8755,89.7935
44.3317,87.2542,93.3548,89.6574,78.9518,82.4774,85.3851
44.4097,84.4155,94.9057,82.8355,77.0561,78.5681,82.0901
44.4877,82.8043,86.9424,84.7082,77.8017,74.8821,87.3177
44.5657,84.046,86.1076,88.098,78.2965,76.1762,84.4777
44.6437,85.6436,84.2874,83.0152,78.8756,75.1615,82.7662
44.7217,85.1733,85.9896,83.7528,75.6905,74.2275,81.6767
44.7997,86.1539,85.4835,83.5189,74.0956,71.5574,85.9135
44.8777,83.5835,84.8786,85.3533,76.7834,74.1983,80.6223
44.9557,84.9464,83.637,84.5425,75.9213,72.8634,82.1145
45.0337,81.6031,83.1253,81.4265,74.3002,73.3887,80.5768
45.1117,83.2201,82.9424,83.3822,77.4684,74.4724,81.8383
45.1897,85.1418,81.9844,81.5278,81.5123,73.9504,81.7101
45.2677,86.9732,84.3139,81.5722,83.6862,76.2963,83.3028
45.3457,87.4466,85.4529,84.4418,80.1209,79.9169,82.3889
45.4237,86.8732,84.9902,86.9437,78.6061,78.3053,84.9213
45.5017,86.4853,88.3119,85.8252,76.8286,78.4404,83.6495
45.5797,84.9965,87.4479,85.7518,79.3514,78.1012,82.2708
45.6577,85.7889,84.2556,85.1133,75.8403,77.8546,81.9376
45.7357,85.3922,84.2829,83.8753,80.2551,73.9448,78.9366
45.8137,83.3016,86.1202,82.852,79.7289,75.4309,82.2231
45.8917,82.7953,86.0129,86.5477,77.0544,77.8366,82.7335
45.9697,84.7331,83.0118,82.8666,79.2844,76.047,81.5494
46.0477,83.5601,85.7908,85.4229,79.3512,75.2706,82.4631
46.1257,82.8484,83.6036,85.0266,83.6221,75.3337,82.6637
46.2037,84.4157,82.4402,85.9474,82.9923,79.5181,84.4714
46.2817,84.5693,83.2575,83.4907,80.8488,78.1798,81.8798
46.3597,83.6234,87.3771,84.8165,76.2076,76.6999,81.8859
46.4377,83.4373,88.8175,83.425,76.2276,76.2305,80.881
46.5157,80.6826,84.0647,81.4851,74.7699,73.2548,78.8292
46.5937,79.0988,82.2682,81.1887,73.2608,71.6576,82.3372
46.6717,81.19,83.1272,81.1625,74.7229,72.3761,78.8928
46.7497,80.7516,81.8367,81.0886,73.9781,71.0957,78.0835
46.8277,80.2022,81.4077,80.7855,73.7616,74.0006,78.2219
46.9057,80.3405,80.0419,81.4869,74.7199,72.9481,78.8372
46.9837,78.8923,81.507,79.183,74.3735,73.0206,79.5081
47.0617,81.5377,81.4069,81.7468,75.9202,72.6936,80.459
47.1397,82.3404,80.341,81.2348,74.7703,72.8171,78.6665
47.2177,80.3774,82.1079,80.2735,74.7233,73.8001,78.9324
47.2957,81.7552,83.2302,84.0008,74.5059,71.6324,77.3147
47.3737,80.0125,83.2382,80.5246,74.8035,72.6501,77.2142
47.4517,76.341,79.1312,79.9343,74.5955,69.0449,79.5909
47.5297,77.547,80.8132,80.5798,72.9957,70.297,77.3735
47.6077,80.261,78.549,79.0684,73.8058,70.1891,78.9705
47.6857,79.4137,81.054,78.4051,73.6141,70.8969,75.0789
47.7637,79.4272,81.5798,82.0153,73.9908,74.2936,76.5952
47.8417,76.999,78.662,80.0687,70.6594,70.9674,77.9301
47.9197,80.9904,82.1463,79.7687,75.5972,71.857,77.763
47.9977,80.3544,81.5099,84.4202,73.7132,70.9097,78.999
48.0757,77.0507,80.5058,79.7487,74.8961,74.4065,79.6913
48.1537,78.395,80.614,81.592,74.509,73.0337,80.1929
48.2317,76.0429,84.4947,79.2067,72.577,70.914,76.7178
48.3097,78.6647,81.6915,81.4877,70.588,71.4435,73.7967
48.3877,81.1326,81.3768,79.5968,77.1459,68.5127,79.2752
48.4657,77.9403,81.2186,80.7996,72.8605,68.8128,76.2842
48.5437,76.7726,79.4174,83.3222,71.3223,72.6073,74.5483
48.6217,78.1555,79.2763,79.0301,70.7095,70.2191,75.0016
48.6997,79.594,78.5131,78.7574,72.1612,71.1477,76.7896
48.7777,79.1911,81.7488,79.0721,72.4205,69.8419,74.6891
48.8557,80.4378,81.0071,80.0253,70.71,69.5495,77.634
48.9337,78.9052,78.1919,80.8627,71.2257,68.421,76.8236
49.0117,77.0252,79.8088,77.5216,72.2386,70.8324,77.939
49.0897,76.6905,77.4669,79.7027,71.8375,69.9167,77.277
49.1677,77.3438,78.399,79.3774,70.9265,68.7311,77.3217
49.2457,79.409,78.3401,78.1412,72.1827,68.5567,77.9835
49.3237,75.7489,79.7543,79.121,71.4231,69.9745,78.3123
49.4017,76.3217,80.0142,79.8377,72.1734,71.894,78.0676
49.4797,80.361,81.4805,79.7163,73.953,70.1802,78.2922
49.5577,76.1838,80.0036,79.5337,74.007,69.0511,78.0551
49.6357,79.645,79.0082,80.4846,70.1861,69.0051,76.937
49.7137,79.0042,78.3684,79.596,71.6936,69.0525,76.7066
49.7917,77.8599,81.3379,78.609,71.3627,68.6906,79.0558
49.8697,78.0857,80.1357,79.0766,71.4267,70.9143,78.1024
49.9477,79.2439,79.7155,79.3577,72.1951,70.8649,80.5013
50.0257,79.1056,80.9594,80.5101,71.1051,70.5738,77.4956
50.1037,78.491,79.2485,81.7545,71.3194,71.2629,77.543
50.1817,79.1441,78.1652,79.7465,73.5447,69.9256,77.2956
50.2597,79.4428,80.0607,79.5852,71.6366,69.1089,78.3178
50.3377,79.2155,79.8668,80.7142,75.7998,69.6512,78.3824
50.4157,80.4259,79.7256,82.5376,75.662,71.1885,79.1883
50.4937,81.8374,80.7063,79.8307,77.7138,73.7992,80.96
50.5717,83.4337,80.5917,83.1455,85.2095,72.1889,82.235
50.6497,86.4574,83.3872,83.9615,102.5826,78.229,88.2453
50.7277,94.4708,83.5367,86.852,108.6794,90.1997,91.7865
50.8057,101.1925,87.9392,92.4748,101.3589,101.1538,92.375
50.8837,96.3058,97.6753,97.3973,98.5784,98.3876,89.7509
50.9617,95.5982,104.7618,93.3827,98.3971,94.8107,90.0922
51.0397,95.6677,101.0712,95.6841,89.9271,91.5732,88.6243
51.1177,92.2385,100.0892,95.5305,86.8641,90.108,83.497
51.1957,88.6686,98.9127,92.7175,78.5112,84.6257,84.8808
51.2737,84.6916,95.1665,88.6839,73.01,77.729,80.9624
51.3517,79.7287,93.1246,84.6809,73.3003,74.5045,78.6401
51.4297,81.17,86.0836,82.5109,73.9194,73.0953,81.5476
51.5077,79.5856,85.3025,82.6942,71.9332,72.4798,80.4481
51.5857,81.2384,82.1835,80.589,72.273,69.8234,75.9815
51.6637,79.9251,80.5039,81.5956,71.0289,67.7303,78.5495
51.7417,77.0338,80.2366,79.5687,72.3083,68.5057,79.5414
51.8197,77.2079,78.5732,80.4694,73.0947,68.8544,77.734
51.8977,80.4679,78.4185,81.8088,74.0903,69.0744,81.9831
51.9757,80.7116,82.1617,82.2848,79.7282,73.632,79.9801
52.0537,85.0405,80.3196,84.5648,88.5159,77.525,82.8654
52.1317,87.8601,84.1054,84.014,84.3448,82.1429,81.3725
52.2097,85.7838,84.8456,86.4559,79.1503,78.5555,82.1799
52.2877,86.0141,86.7746,89.2149,80.0458,77.2086,83.2939
52.3657,82.741,88.721,87.2234,75.2401,76.7057,78.5602
52.4437,82.9524,85.9471,83.9822,72.963,73.5768,79.2276
52.5217,81.8072,85.1957,83.7725,73.4449,74.6232,79.2092
52.5997,79.9068,83.5313,80.8536,72.129,70.4626,79.0814
52.6777,78.6675,81.2869,80.8357,74.196,73.1377,77.7908
52.7557,79.6306,82.7964,82.3231,75.5137,71.7563,81.8914
52.8337,81.0457,82.4867,80.3103,78.9826,72.5545,77.2433
52.9117,80.7223,81.4611,83.7635,81.7624,74.3799,81.1367
52.9897,83.1246,82.5527,81.3864,78.8,75.1627,79.5918
53.0677,81.8836,82.9252,85.1851,79.608,77.5257,78.22
53.1457,84.4628,86.0989,82.4755,79.7823,77.0175,79.3875
53.2237,85.5498,84.4679,83.7044,78.0133,79.0625,79.4003
53.3017,81.3724,84.0633,82.4068,76.6026,76.7451,78.0357
53.3797,83.3626,84.9841,82.3477,72.087,74.7678,79.9853
53.4577,79.9157,85.0168,80.2255,74.1575,72.8101,78.4649
53.5357,79.0694,82.5648,80.2019,74.0233,69.6031,77.3379
53.6137,79.1446,82.7325,78.5029,74.4914,71.7885,78.1083
53.6917,79.8485,81.757,79.37,73.9381,71.4531,77.0995
53.7697,79.532,81.4186,78.7562,72.8211,72.602,76.6872
53.8477,79.5621,81.9792,82.3061,72.4815,68.7349,77.3689
53.9257,77.798,81.5201,79.8107,73.6847,71.8773,76.2254
54.0037,79.3501,80.1174,79.1317,71.592,69.1983,74.9556
54.0817,77.8078,80.3163,78.9387,72.3161,70.0703,75.5444
54.1597,76.9292,77.9463,78.9256,70.1616,66.4931,76.0962
54.2377,76.5419,78.6373,77.2436,71.0383,69.0866,76.1437
54.3157,78.3413,79.9411,78.8697,70.1403,69.3483,76.3125
54.3937,75.6202,79.3931,78.4941,70.9362,69.305,74.7841
54.4717,76.1556,78.7527,78.7142,70.0826,70.8015,77.2134
54.5497,76.4467,79.2478,79.2121,72.9929,70.2757,74.2558
54.6277,79.0481,79.5698,79.9755,70.9162,70.552,75.8683
54.7057,77.9705,79.7059,77.5648,70.0287,70.3614,76.1309
54.7837,77.6997,77.7105,79.2291,72.2916,70.0296,75.76
54.8617,77.7388,78.8366,78.9173,71.1949,69.4818,75.84
54.9397,77.9351,79.2133,79.7277,73.6953,68.6578,77.7653
55.0177,80.8488,79.8669,79.8372,76.6716,69.4224,78.0057
55.0957,79.3001,79.9788,80.1746,73.1442,72.6035,77.7969
55.1737,82.5141,79.9859,80.0813,74.4128,72.1727,77.7284
55.2517,79.5593,80.7695,79.5497,74.075,72.1405,77.3733
55.3297,77.4482,81.6971,83.211,73.107,73.7002,75.3562
55.4077,78.4147,83.3928,79.0738,73.752,70.9004,75.2385
55.4857,79.295,80.4764,79.3222,69.5838,69.084,76.4991
55.5637,78.8189,79.5183,77.7792,71.7895,68.268,76.508
55.6417,75.5107,82.0102,78.5224,70.091,72.1154,73.6767
55.7197,76.2767,80.8145,81.6711,73.5227,69.8411,76.6921
55.7977,77.1462,82.3872,80.4086,71.0233,68.2049,73.8893
55.8757,78.0635,83.0931,79.0033,73.0838,68.4736,77.2205
55.9537,77.2722,79.3385,77.8578,71.1106,67.7213,76.2436
56.0317,77.5819,78.0574,79.1735,71.8985,69.3426,75.8951
56.1097,76.3814,78.0176,78.5366,73.5043,68.5145,78.6572
56.1877,81.6551,80.8805,79.1002,80.2872,71.9679,78.1878
56.2657,81.8349,80.2686,82.314,85.5569,75.9958,78.0552
56.3437,85.0759,78.9573,83.4466,82.9539,78.334,81.0441
56.4217,85.0641,80.6888,87.032,81.8344,79.8736,81.392
56.4997,82.8722,87.0208,85.9892,74.859,78.9343,80.5935
56.5777,80.4084,89.4208,82.5766,73.8663,75.063,76.7332
56.6557,75.3191,85.2382,81.7295,71.9883,73.8714,75.4843
56.7337,78.0428,86.6489,78.5902,72.9663,71.7253,76.2308
56.8117,77.9567,82.886,79.9133,73.1221,70.8824,76.1147
56.8897,81.2922,81.4548,78.079,73.5673,71.3747,78.3557
56.9677,81.3516,84.7131,81.9298,77.1136,74.4171,78.8693
57.0457,82.8824,80.2424,78.7735,77.6545,71.6873,78.5068
57.1237,80.8962,82.5855,82.0592,75.2757,73.6097,78.103
57.2017,79.1466,85.1483,81.7226,73.9322,72.3475,76.5285
57.2797,81.303,84.0173,81.9593,71.0869,71.4776,75.8119
57.3577,78.7022,83.0498,79.1826,71.4268,71.5097,77.973
57.4357,79.3398,81.5542,79.1296,72.906,71.1644,75.4737
57.5137,78.2016,80.2792,79.4098,73.3839,68.0816,75.1393
57.5917,78.3298,78.8353,79.1887,71.2909,68.9911,76.6934
57.6697,79.2939,80.0659,79.186,72.035,67.8955,77.9336
57.7477,78.5453,79.6011,80.6309,71.044,68.7802,77.5941
57.8257,77.5139,80.4171,77.2216,71.3126,69.4172,74.9085
57.9037,77.9562,83.4696,79.831,71.0239,68.1814,75.1773
57.9817,78.0349,81.8389,78.6689,70.9675,69.3342,76.4019
58.0597,76.4703,79.9179,78.2962,69.631,67.836,76.4149
58.1377,77.3974,78.745,77.987,73.2978,68.9213,75.5103
58.2157,77.4991,79.291,79.1483,74.5628,69.2901,76.593
58.2937,79.6172,79.7513,78.3848,75.8492,69.9042,76.714
58.3717,81.3228,78.6511,79.5067,72.846,72.0556,76.7143
58.4497,78.6585,82.0295,80.8478,73.723,72.7095,77.1605
58.5277,79.8497,80.6171,80.5677,70.4471,72.0318,78.1255
58.6057,80.2014,82.7522,79.5011,71.4175,68.412,76.6457
58.6837,77.6844,81.9041,80.5965,71.9162,70.224,76.3972
58.7617,78.5661,80.4243,79.0106,71.4714,69.7978,77.749
58.8397,80.5026,80.1328,78.707,75.8558,71.1236,78.3909
58.9177,80.2316,80.7011,81.1311,81.0116,71.5679,78.5341
58.9957,83.1836,83.3089,79.0531,90.3228,74.3308,80.8283
59.0737,87.3088,81.2534,81.3662,91.3662,82.6711,83.8652
59.1517,91.6713,81.9164,85.703,89.7775,84.5574,83.1415
59.2297,87.9323,87.4585,89.0584,92.2762,85.4242,84.4067
59.3077,90.046,92.2541,88.9985,87.2762,84.7366,81.7707
59.3857,90.5199,87.6737,88.6737,79.0793,86.5122,81.7048
59.4637,87.8669,91.5998,89.9533,76.995,80.1484,81.9242
59.5417,82.2851,90.9323,85.1391,71.3199,75.8078,77.6615
59.6197,78.3613,89.0939,82.554,71.6261,71.436,76.6683
59.6977,76.2182,86.3522,80.4634,69.8034,69.4691,73.6141
59.7757,77.1972,84.4544,77.9805,70.8166,67.6748,74.919
59.8537,78.928,83.2088,76.7875,68.8196,66.584,76.4535
59.9317,78.6388,80.3823,79.387,67.5333,66.3378,77.0881